ax,ay,az,rx,ry,rz,timestamp
-9.55305,0.401258,-0.467636,-0.024355469999999997,-0.00412579,-0.0079854,1746801565384715
-9.54707,0.40365,-0.47541,-0.024222379999999998,-0.004525059999999999,-0.008118489999999999,1746801585358615
-9.55006,0.40783600000000003,-0.449696,-0.02448856,-0.004391969999999999,-0.00678759,1746801605332515
-9.554844000000001,0.41561,-0.470028,-0.02502092,-0.0053235999999999995,-0.007586129999999999,1746801625306395
-9.534512,0.41321800000000003,-0.470626,-0.024754739999999997,-0.00519051,-0.00891703,1746801645280295
-9.545874,0.401258,-0.464646,-0.02462165,-0.004525059999999999,-0.00825158,1746801665254175
-9.554246000000001,0.416208,-0.487968,-0.023823109999999998,-0.00465815,-0.007586129999999999,1746801685228015
-9.5381,0.41262,-0.456872,-0.023823109999999998,-0.004924329999999999,-0.0079854,1746801705201915
-9.551256,0.402454,-0.49335,-0.02408929,-0.00519051,-0.008118489999999999,1746801725175795
-9.55006,0.414414,-0.46943,-0.02462165,-0.00519051,-0.008118489999999999,1746801745149475
-9.547668,0.399464,-0.46046,-0.024222379999999998,-0.0058559599999999995,-0.00851776,1746801765123375
-9.55006,0.40664,-0.45268600000000003,-0.023823109999999998,-0.0047912399999999996,-0.008118489999999999,1746801785097375
-9.550658,0.389896,-0.449098,-0.02408929,-0.00519051,-0.007719219999999999,1746801805070415
-9.54408,0.40006200000000003,-0.48438000000000003,-0.023823109999999998,-0.004525059999999999,-0.00785231,1746801825044055
-9.54109,0.40365,-0.47541,-0.02448856,-0.005456689999999999,-0.008118489999999999,1746801845017835
-9.546472,0.409032,-0.447902,-0.024355469999999997,-0.005456689999999999,-0.008384669999999999,1746801864991755
-9.556638,0.415012,-0.468832,-0.024754739999999997,-0.00519051,-0.00865085,1746801884965595
-9.552452,0.403052,-0.45268600000000003,-0.02329075,-0.0038596099999999994,-0.00851776,1746801904939415
-9.545874,0.398866,-0.461058,-0.02408929,-0.004924329999999999,-0.007719219999999999,1746801924913235
-9.552452,0.405444,-0.473616,-0.025287099999999996,-0.004391969999999999,-0.008783939999999999,1746801944887075
-9.560226,0.410826,-0.477802,-0.02448856,-0.0047912399999999996,-0.00891703,1746801964861035
-9.547668,0.406042,-0.48976200000000003,-0.024222379999999998,-0.0053235999999999995,-0.00785231,1746801984834915
-9.547668,0.419796,-0.446108,-0.025287099999999996,-0.004525059999999999,-0.00851776,1746801005808755
-9.554246000000001,0.40365,-0.48976200000000003,-0.024887829999999996,-0.00612214,-0.00851776,1746801025782615
-9.543482000000001,0.405444,-0.4784,-0.025287099999999996,-0.00505742,-0.00825158,1746801045756515
-9.542884,0.41561,-0.465244,-0.024355469999999997,-0.00625523,-0.00718686,1746801065730395
-9.542286,0.408434,-0.461058,-0.024887829999999996,-0.005456689999999999,-0.007453039999999999,1746801085704195
-9.543482000000001,0.40783600000000003,-0.484978,-0.024355469999999997,-0.006654499999999999,-0.00718686,1746801105678095
-9.525542,0.398268,-0.494546,-0.02408929,-0.00465815,-0.00785231,1746801125651955
-9.562618,0.401856,-0.459264,-0.02329075,-0.00572287,-0.007453039999999999,1746801145625755
-9.550658,0.404248,-0.461058,-0.024222379999999998,-0.0039927,-0.008384669999999999,1746801165599575
-9.559628,0.420394,-0.482586,-0.02448856,-0.0047912399999999996,-0.0079854,1746801185573495
-9.545276,0.416208,-0.487968,-0.023956199999999997,-0.00412579,-0.007719219999999999,1746801205547395
-9.547668,0.411424,-0.487968,-0.024222379999999998,-0.004924329999999999,-0.007586129999999999,1746801225521275
-9.551854,0.422786,-0.489164,-0.02448856,-0.0047912399999999996,-0.0079854,1746801245495135
-9.565010000000001,0.398268,-0.477204,-0.024355469999999997,-0.005456689999999999,-0.008783939999999999,1746801265469075
-9.550658,0.418002,-0.459264,-0.024222379999999998,-0.00505742,-0.008384669999999999,1746801285442915
-9.551854,0.404846,-0.498134,-0.025154009999999997,-0.0053235999999999995,-0.008783939999999999,1746801305416695
-9.552452,0.398268,-0.467038,-0.02621873,-0.005589779999999999,-0.007586129999999999,1746801325390615
-9.544678,0.395876,-0.47122400000000003,-0.02502092,-0.004391969999999999,-0.00865085,1746801345364455
-9.556638,0.414414,-0.461058,-0.024754739999999997,-0.0047912399999999996,-0.0073199499999999995,1746801365338295
-9.539296,0.41262,-0.461058,-0.024222379999999998,-0.004391969999999999,-0.008118489999999999,1746801385312195
-9.54408,0.39767,-0.459264,-0.02448856,-0.0039927,-0.008118489999999999,1746801405286115
-9.550658,0.40664,-0.478998,-0.02462165,-0.00425888,-0.00865085,1746801425259955
-9.54707,0.40664,-0.464048,-0.02502092,-0.00425888,-0.00851776,1746801445233855
-9.545276,0.404248,-0.468234,-0.024222379999999998,-0.005589779999999999,-0.007719219999999999,1746801465207735
-9.551256,0.398866,-0.46943,-0.023956199999999997,-0.0053235999999999995,-0.005989049999999999,1746801485181595
-9.551854,0.405444,-0.467038,-0.023556929999999997,-0.00505742,-0.008118489999999999,1746801505155395
-9.541688,0.420394,-0.45268600000000003,-0.023024569999999998,-0.00465815,-0.007719219999999999,1746801525129275
-9.545276,0.405444,-0.45806800000000003,-0.024222379999999998,-0.0047912399999999996,-0.00851776,1746801545103115
-9.545276,0.404846,-0.45268600000000003,-0.025154009999999997,-0.0037265199999999997,-0.00891703,1746801565076975
-9.549462,0.426972,-0.461656,-0.024222379999999998,-0.004525059999999999,-0.009449389999999998,1746801585050875
-9.551854,0.416806,-0.474214,-0.024355469999999997,-0.00465815,-0.008118489999999999,1746801605024575
-9.545874,0.39767,-0.490958,-0.02462165,-0.00465815,-0.007453039999999999,1746801624998455
-9.55006,0.401856,-0.45448,-0.024754739999999997,-0.004391969999999999,-0.007719219999999999,1746801644972515
-9.547668,0.396474,-0.443716,-0.025154009999999997,-0.00519051,-0.00825158,1746801664946395
-9.553648,0.416806,-0.467038,-0.023823109999999998,-0.00505742,-0.00718686,1746801684920175
-9.539296,0.392288,-0.470626,-0.024355469999999997,-0.004525059999999999,-0.007453039999999999,1746801704894155
-9.548864,0.395876,-0.464048,-0.023956199999999997,-0.00505742,-0.00851776,1746801724868095
-9.55006,0.401258,-0.46644,-0.02462165,-0.00465815,-0.00785231,1746801744841955
-9.535708,0.404248,-0.473616,-0.02502092,-0.00465815,-0.00825158,1746801764815795
-9.550658,0.40365,-0.47660600000000003,-0.02408929,-0.0053235999999999995,-0.0079854,1746801784789655
-9.554844000000001,0.410228,-0.48438000000000003,-0.02408929,-0.00465815,-0.008118489999999999,1746801804763615
-9.539296,0.398866,-0.456872,-0.023556929999999997,-0.00505742,-0.007586129999999999,1746801824737375
-9.543482000000001,0.414414,-0.465244,-0.023823109999999998,-0.004525059999999999,-0.00825158,1746801844711255
-9.550658,0.41262,-0.467636,-0.024754739999999997,-0.005589779999999999,-0.00865085,1746801864685155
-9.554246000000001,0.402454,-0.458666,-0.02408929,-0.0053235999999999995,-0.008384669999999999,1746801884659075
-9.55903,0.412022,-0.44491200000000003,-0.024222379999999998,-0.00465815,-0.00865085,1746801904633015
-9.536904,0.402454,-0.455078,-0.023956199999999997,-0.00519051,-0.009050119999999998,1746801924606935
-9.547668,0.404846,-0.455676,-0.024887829999999996,-0.005456689999999999,-0.0093163,1746801944580895
-9.549462,0.408434,-0.467636,-0.02502092,-0.0053235999999999995,-0.009183209999999999,1746801964554715
-9.542884,0.403052,-0.473018,-0.02502092,-0.004525059999999999,-0.00851776,1746801984528535
-9.542286,0.398866,-0.465244,-0.024355469999999997,-0.004391969999999999,-0.008783939999999999,1746801005502555
-9.54109,0.392886,-0.4784,-0.024754739999999997,-0.004924329999999999,-0.00865085,1746801025476435
-9.55006,0.410228,-0.462852,-0.024887829999999996,-0.00465815,-0.008384669999999999,1746801045450295
-9.545276,0.40963,-0.467636,-0.024754739999999997,-0.004391969999999999,-0.0073199499999999995,1746801065424135
-9.548266,0.412022,-0.477204,-0.02448856,-0.0038596099999999994,-0.007719219999999999,1746801085397995
-9.549462,0.41321800000000003,-0.45806800000000003,-0.025287099999999996,-0.005589779999999999,-0.007586129999999999,1746801105371955
-9.547668,0.40066,-0.464048,-0.025154009999999997,-0.0053235999999999995,-0.0079854,1746801125345895
-9.548864,0.40783600000000003,-0.461058,-0.02408929,-0.0047912399999999996,-0.006654499999999999,1746801145319815
-9.545276,0.41561,-0.470626,-0.02369002,-0.00519051,-0.00865085,1746801165293735
-9.554246000000001,0.404846,-0.455078,-0.023823109999999998,-0.004924329999999999,-0.00825158,1746801185267735
-9.54109,0.40783600000000003,-0.45149,-0.02369002,-0.00412579,-0.00825158,1746801205241675
-9.554844000000001,0.401258,-0.474812,-0.023423839999999998,-0.0053235999999999995,-0.008384669999999999,1746801225215535
-9.561422,0.404248,-0.456872,-0.023423839999999998,-0.005456689999999999,-0.008783939999999999,1746801245189355
-9.54109,0.412022,-0.471822,-0.02462165,-0.00572287,-0.008118489999999999,1746801265163355
-9.547668,0.42159,-0.47541,-0.023823109999999998,-0.0047912399999999996,-0.007053769999999999,1746801285137095
-9.54707,0.41321800000000003,-0.464646,-0.02448856,-0.00465815,-0.007586129999999999,1746801305110975
-9.54109,0.406042,-0.473018,-0.02329075,-0.004525059999999999,-0.00785231,1746801325084875
-9.54408,0.409032,-0.47122400000000003,-0.02408929,-0.0039927,-0.009050119999999998,1746801345058715
-9.535708,0.41321800000000003,-0.45747,-0.02408929,-0.0047912399999999996,-0.008783939999999999,1746801365032635
-9.545276,0.401258,-0.468832,-0.024222379999999998,-0.00465815,-0.008783939999999999,1746801385006455
-9.54408,0.40365,-0.455676,-0.023823109999999998,-0.005456689999999999,-0.008384669999999999,1746801404980315
-9.545276,0.407238,-0.468234,-0.023556929999999997,-0.004391969999999999,-0.007053769999999999,1746801424954255
-9.55006,0.406042,-0.461656,-0.024355469999999997,-0.004525059999999999,-0.007453039999999999,1746801444928135
-9.55305,0.394082,-0.46345000000000003,-0.02448856,-0.004924329999999999,-0.008384669999999999,1746801464902095
-9.548864,0.401856,-0.470028,-0.02462165,-0.005989049999999999,-0.008118489999999999,1746801484875955
-9.551854,0.40783600000000003,-0.46644,-0.02408929,-0.0047912399999999996,-0.00785231,1746801504849955
-9.55006,0.398268,-0.464048,-0.024355469999999997,-0.005456689999999999,-0.00825158,1746801524823855
-9.560226,0.40664,-0.486174,-0.024355469999999997,-0.00425888,-0.00785231,1746801544797675
-9.542884,0.401856,-0.485576,-0.024754739999999997,-0.004525059999999999,-0.0073199499999999995,1746801564771515
-9.536306,0.41262,-0.464646,-0.024222379999999998,-0.004924329999999999,-0.007453039999999999,1746801584745495
-9.550658,0.398866,-0.481988,-0.02408929,-0.0039927,-0.00825158,1746801604719475
-9.554844000000001,0.397072,-0.46943,-0.02408929,-0.004924329999999999,-0.0079854,1746801624693435
-9.55006,0.396474,-0.456274,-0.02462165,-0.0053235999999999995,-0.008384669999999999,1746801644667215
-9.554844000000001,0.405444,-0.47242,-0.024222379999999998,-0.004924329999999999,-0.00825158,1746801664641075
-9.54408,0.408434,-0.462852,-0.02448856,-0.00425888,-0.00825158,1746801684614995
-9.55006,0.409032,-0.47122400000000003,-0.024222379999999998,-0.00519051,-0.0079854,1746801704588975
-9.542884,0.396474,-0.462254,-0.02408929,-0.005456689999999999,-0.008118489999999999,1746801724562915
-9.556638,0.395876,-0.45448,-0.024355469999999997,-0.004924329999999999,-0.00825158,1746801744536695
-9.556638,0.42637400000000003,-0.470028,-0.023823109999999998,-0.0047912399999999996,-0.008384669999999999,1746801764511135
-9.553648,0.40365,-0.470028,-0.023956199999999997,-0.0039927,-0.007453039999999999,1746801784485115
-9.562618,0.408434,-0.455078,-0.023956199999999997,-0.00572287,-0.00785231,1746801804459035
-9.557834,0.401856,-0.467636,-0.02462165,-0.00519051,-0.008783939999999999,1746801824432875
-9.544678,0.407238,-0.43355,-0.024887829999999996,-0.004391969999999999,-0.009183209999999999,1746801844406795
-9.549462,0.392886,-0.44491200000000003,-0.024222379999999998,-0.004924329999999999,-0.00891703,1746801864380735
-9.544678,0.392288,-0.46943,-0.02408929,-0.005989049999999999,-0.00851776,1746801884354675
-9.543482000000001,0.389896,-0.45747,-0.02462165,-0.00572287,-0.00865085,1746801904328355
-9.553648,0.406042,-0.473616,-0.02462165,-0.00465815,-0.008118489999999999,1746801924302375
-9.554246000000001,0.415012,-0.462254,-0.023556929999999997,-0.004391969999999999,-0.00678759,1746801944276275
-9.551854,0.404248,-0.4784,-0.02448856,-0.004391969999999999,-0.00785231,1746801964250135
-9.536904,0.411424,-0.46046,-0.02408929,-0.00465815,-0.00851776,1746801984223975
-9.539894,0.398268,-0.467636,-0.023157659999999997,-0.0047912399999999996,-0.00785231,1746801005197915
-9.558432,0.40066,-0.473616,-0.023956199999999997,-0.0047912399999999996,-0.00825158,1746801025171835
-9.542884,0.408434,-0.461656,-0.023956199999999997,-0.00505742,-0.00851776,1746801045145775
-9.542286,0.401258,-0.459264,-0.02369002,-0.0047912399999999996,-0.0079854,1746801065119595
-9.535708,0.407238,-0.465842,-0.02448856,-0.0047912399999999996,-0.00785231,1746801085093555
-9.549462,0.410228,-0.487968,-0.024222379999999998,-0.00519051,-0.007586129999999999,1746801105067435
-9.55903,0.410826,-0.476008,-0.024355469999999997,-0.0037265199999999997,-0.00851776,1746801125041355
-9.553648,0.41262,-0.488566,-0.02448856,-0.0047912399999999996,-0.008384669999999999,1746801145015175
-9.550658,0.41561,-0.462852,-0.024355469999999997,-0.00465815,-0.00718686,1746801164988995
-9.55305,0.425178,-0.483184,-0.02502092,-0.0053235999999999995,-0.008118489999999999,1746801184962995
-9.55903,0.401258,-0.468832,-0.02448856,-0.005989049999999999,-0.00785231,1746801204936975
-9.54408,0.405444,-0.474214,-0.023556929999999997,-0.00612214,-0.00825158,1746801224910795
-9.527934,0.40783600000000003,-0.4784,-0.024222379999999998,-0.005589779999999999,-0.008118489999999999,1746801244884555
-9.54408,0.42458,-0.476008,-0.024222379999999998,-0.0053235999999999995,-0.007453039999999999,1746801264858575
-9.554844000000001,0.417404,-0.467636,-0.02448856,-0.0047912399999999996,-0.008118489999999999,1746801284832455
-9.54707,0.401856,-0.456274,-0.02462165,-0.00572287,-0.00998175,1746801304806395
-9.529728,0.408434,-0.458666,-0.024754739999999997,-0.0047912399999999996,-0.00971557,1746801324780275
-9.558432,0.42099200000000003,-0.446108,-0.024887829999999996,-0.00519051,-0.009050119999999998,1746801344754095
-9.555442,0.410826,-0.468832,-0.024754739999999997,-0.004924329999999999,-0.0073199499999999995,1746801364727995
-9.553648,0.41561,-0.474812,-0.024754739999999997,-0.0047912399999999996,-0.00865085,1746801384701955
-9.54109,0.401856,-0.45747,-0.02462165,-0.00519051,-0.00851776,1746801404675275
-9.530924,0.40783600000000003,-0.47660600000000003,-0.023956199999999997,-0.00465815,-0.00785231,1746801424649055
-9.566804,0.404846,-0.459264,-0.024222379999999998,-0.0047912399999999996,-0.00865085,1746801444622795
-9.565608000000001,0.402454,-0.461656,-0.024355469999999997,-0.0039927,-0.00865085,1746801464596795
-9.536904,0.39468000000000003,-0.493948,-0.024222379999999998,-0.0058559599999999995,-0.00825158,1746801484570635
-9.552452,0.413816,-0.4784,-0.02462165,-0.0039927,-0.009050119999999998,1746801504544415
-9.55903,0.414414,-0.467038,-0.02502092,-0.0039927,-0.00825158,1746801524518295
-9.560824,0.416208,-0.464646,-0.02462165,-0.004924329999999999,-0.0079854,1746801544492275
-9.566206,0.40664,-0.480194,-0.02408929,-0.00519051,-0.00825158,1746801564465955
-9.546472,0.401856,-0.47242,-0.02408929,-0.0047912399999999996,-0.008118489999999999,1746801584439755
-9.54707,0.409032,-0.46644,-0.023956199999999997,-0.00519051,-0.00851776,1746801604413795
-9.551256,0.410826,-0.462852,-0.02502092,-0.005456689999999999,-0.008118489999999999,1746801624387695
-9.548266,0.409032,-0.471822,-0.02408929,-0.0053235999999999995,-0.00851776,1746801644361595
-9.557236,0.40963,-0.443716,-0.024222379999999998,-0.005589779999999999,-0.00865085,1746801664335455
-9.539894,0.410826,-0.465842,-0.024222379999999998,-0.0047912399999999996,-0.00785231,1746801684309335
-9.548864,0.418002,-0.486174,-0.024222379999999998,-0.00519051,-0.008118489999999999,1746801704283315
-9.540492,0.404846,-0.449696,-0.024222379999999998,-0.0047912399999999996,-0.008783939999999999,1746801724257095
-9.533316,0.414414,-0.484978,-0.02462165,-0.0053235999999999995,-0.0079854,1746801744230995
-9.542884,0.41321800000000003,-0.48438000000000003,-0.024222379999999998,-0.00505742,-0.0079854,1746801764204815
-9.53511,0.399464,-0.482586,-0.024754739999999997,-0.00465815,-0.00825158,1746801784178635
-9.54408,0.406042,-0.45747,-0.024355469999999997,-0.005456689999999999,-0.0073199499999999995,1746801804152735
-9.55006,0.42637400000000003,-0.467636,-0.023823109999999998,-0.00519051,-0.00865085,1746801824126535
-9.542884,0.420394,-0.462254,-0.023956199999999997,-0.00505742,-0.008783939999999999,1746801844100395
-9.554844000000001,0.405444,-0.462254,-0.02448856,-0.004525059999999999,-0.00865085,1746801864074235
-9.553648,0.409032,-0.46943,-0.023024569999999998,-0.004924329999999999,-0.007586129999999999,1746801884048135
-9.550658,0.406042,-0.470626,-0.02408929,-0.0047912399999999996,-0.008783939999999999,1746801904022015
-9.546472,0.417404,-0.465244,-0.02369002,-0.004525059999999999,-0.00785231,1746801923996015
-9.554246000000001,0.399464,-0.47660600000000003,-0.024355469999999997,-0.00465815,-0.008384669999999999,1746801943969955
-9.549462,0.409032,-0.489164,-0.025952549999999998,-0.0047912399999999996,-0.0079854,1746801963943895
-9.55305,0.398866,-0.458666,-0.024754739999999997,-0.004391969999999999,-0.00825158,1746801983917755
-9.554844000000001,0.408434,-0.47541,-0.025154009999999997,-0.0047912399999999996,-0.008783939999999999,1746801004891615
-9.546472,0.403052,-0.45448,-0.02329075,-0.00425888,-0.009183209999999999,1746801024865615
-9.554844000000001,0.39767,-0.470626,-0.02369002,-0.00465815,-0.009582479999999999,1746801044839575
-9.558432,0.404846,-0.450892,-0.024887829999999996,-0.004924329999999999,-0.009183209999999999,1746801064813535
-9.56202,0.399464,-0.462852,-0.024754739999999997,-0.0053235999999999995,-0.007453039999999999,1746801084787455
-9.544678,0.408434,-0.44252,-0.024222379999999998,-0.00625523,-0.008783939999999999,1746801104761335
-9.538698,0.415012,-0.462852,-0.02462165,-0.00465815,-0.00785231,1746801124735295
-9.539894,0.432354,-0.471822,-0.024355469999999997,-0.00519051,-0.00785231,1746801144709295
-9.54707,0.41321800000000003,-0.468832,-0.02581946,-0.0058559599999999995,-0.00891703,1746801164683135
-9.545276,0.406042,-0.4485,-0.024355469999999997,-0.005456689999999999,-0.007719219999999999,1746801184656935
-9.542286,0.41561,-0.4784,-0.025154009999999997,-0.00505742,-0.008783939999999999,1746801204630975
-9.546472,0.404248,-0.459862,-0.024355469999999997,-0.004525059999999999,-0.008384669999999999,1746801224604975
-9.542884,0.395278,-0.468832,-0.023956199999999997,-0.00412579,-0.007586129999999999,1746801244578715
-9.548266,0.407238,-0.45268600000000003,-0.024355469999999997,-0.005589779999999999,-0.007719219999999999,1746801264552555
-9.535708,0.41561,-0.485576,-0.024222379999999998,-0.004924329999999999,-0.00825158,1746801284526535
-9.53511,0.401856,-0.477204,-0.02502092,-0.004525059999999999,-0.008118489999999999,1746801304500495
-9.552452,0.414414,-0.461656,-0.024222379999999998,-0.004924329999999999,-0.00865085,1746801324474435
-9.551854,0.412022,-0.450294,-0.024754739999999997,-0.005456689999999999,-0.00891703,1746801344448255
-9.548266,0.423982,-0.441922,-0.025287099999999996,-0.00519051,-0.008118489999999999,1746801364422135
-9.545874,0.41561,-0.446706,-0.024222379999999998,-0.00519051,-0.00825158,1746801384396115
-9.554844000000001,0.40365,-0.464646,-0.02369002,-0.0038596099999999994,-0.00678759,1746801404370235
-9.555442,0.410826,-0.464646,-0.02369002,-0.004924329999999999,-0.007586129999999999,1746801424344255
-9.551854,0.40006200000000003,-0.455078,-0.023157659999999997,-0.0058559599999999995,-0.00785231,1746801444318015
-9.553648,0.417404,-0.477802,-0.024355469999999997,-0.00612214,-0.00825158,1746801464291895
-9.545874,0.40783600000000003,-0.489164,-0.025154009999999997,-0.00505742,-0.008783939999999999,1746801484265835
-9.544678,0.403052,-0.476008,-0.02408929,-0.005456689999999999,-0.009050119999999998,1746801504239795
-9.545276,0.414414,-0.464646,-0.024754739999999997,-0.0053235999999999995,-0.008783939999999999,1746801524213835
-9.546472,0.411424,-0.450294,-0.02448856,-0.00505742,-0.00851776,1746801544187695
-9.555442,0.411424,-0.46345000000000003,-0.024222379999999998,-0.00519051,-0.008384669999999999,1746801564161515
-9.548864,0.407238,-0.494546,-0.02408929,-0.0053235999999999995,-0.009050119999999998,1746801584135315
-9.53212,0.407238,-0.480792,-0.024887829999999996,-0.004924329999999999,-0.00825158,1746801604109275
-9.538698,0.395278,-0.480194,-0.02462165,-0.00519051,-0.00891703,1746801624083335
-9.557834,0.416806,-0.464048,-0.024754739999999997,-0.0053235999999999995,-0.0079854,1746801644057295
-9.560824,0.40664,-0.48139,-0.02462165,-0.0058559599999999995,-0.00865085,1746801664031095
-9.543482000000001,0.412022,-0.4485,-0.02408929,-0.004924329999999999,-0.00851776,1746801684004975
-9.545276,0.410228,-0.482586,-0.024887829999999996,-0.00465815,-0.00851776,1746801703978955
-9.54109,0.404846,-0.473018,-0.02329075,-0.0047912399999999996,-0.00851776,1746801723953035
-9.552452,0.423384,-0.456872,-0.02448856,-0.00572287,-0.00865085,1746801743926955
-9.547668,0.408434,-0.480792,-0.024754739999999997,-0.0058559599999999995,-0.0079854,1746801763900835
-9.539894,0.413816,-0.46345000000000003,-0.024355469999999997,-0.0053235999999999995,-0.007719219999999999,1746801783874695
-9.547668,0.416806,-0.471822,-0.02448856,-0.0047912399999999996,-0.0073199499999999995,1746801803848775
-9.542286,0.418002,-0.45806800000000003,-0.024222379999999998,-0.00465815,-0.008118489999999999,1746801823822895
-9.551854,0.412022,-0.474214,-0.02462165,-0.005989049999999999,-0.00825158,1746801843796855
-9.547668,0.401258,-0.461656,-0.02462165,-0.0053235999999999995,-0.009183209999999999,1746801863770855
-9.560226,0.40365,-0.474812,-0.025154009999999997,-0.00465815,-0.0079854,1746801883744935
-9.549462,0.412022,-0.479596,-0.02502092,-0.0053235999999999995,-0.007586129999999999,1746801903718975
-9.54408,0.4186,-0.482586,-0.023956199999999997,-0.005456689999999999,-0.007586129999999999,1746801923692755
-9.544678,0.40963,-0.468832,-0.023956199999999997,-0.00505742,-0.008783939999999999,1746801943666535
-9.542884,0.404248,-0.46046,-0.025154009999999997,-0.00572287,-0.008783939999999999,1746801963640515
-9.554246000000001,0.397072,-0.476008,-0.024887829999999996,-0.00465815,-0.007453039999999999,1746801983614535
-9.543482000000001,0.40365,-0.450892,-0.02542019,-0.00519051,-0.007719219999999999,1746801004588475
-9.548266,0.41262,-0.464646,-0.024222379999999998,-0.00425888,-0.0079854,1746801024562335
-9.552452,0.40783600000000003,-0.478998,-0.024355469999999997,-0.004924329999999999,-0.009050119999999998,1746801044535995
-9.551256,0.40783600000000003,-0.46345000000000003,-0.02408929,-0.00505742,-0.00851776,1746801064509915
-9.549462,0.425776,-0.468234,-0.024754739999999997,-0.005589779999999999,-0.00785231,1746801084483855
-9.552452,0.420394,-0.455676,-0.02462165,-0.004525059999999999,-0.009183209999999999,1746801104457775
-9.543482000000001,0.410228,-0.48976200000000003,-0.02462165,-0.0039927,-0.008118489999999999,1746801124431595
-9.556638,0.413816,-0.470028,-0.025154009999999997,-0.00572287,-0.0079854,1746801144405515
-9.554844000000001,0.41561,-0.465842,-0.02502092,-0.0053235999999999995,-0.008783939999999999,1746801164379415
-9.551256,0.410228,-0.468234,-0.024754739999999997,-0.004924329999999999,-0.007719219999999999,1746801184353295
-9.545874,0.41262,-0.480792,-0.02408929,-0.004525059999999999,-0.0079854,1746801204327255
-9.54408,0.40783600000000003,-0.481988,-0.023956199999999997,-0.004924329999999999,-0.007586129999999999,1746801224301215
-9.551256,0.412022,-0.483782,-0.02462165,-0.0053235999999999995,-0.00865085,1746801244274995
-9.565608000000001,0.406042,-0.462254,-0.023956199999999997,-0.005989049999999999,-0.00865085,1746801264248855
-9.542884,0.41262,-0.447304,-0.023157659999999997,-0.005589779999999999,-0.008118489999999999,1746801284222795
-9.5381,0.403052,-0.46345000000000003,-0.023556929999999997,-0.0053235999999999995,-0.00865085,1746801304196735
-9.549462,0.409032,-0.471822,-0.023556929999999997,-0.004924329999999999,-0.007719219999999999,1746801324170615
-9.533914,0.416806,-0.443118,-0.024222379999999998,-0.00612214,-0.007586129999999999,1746801344144295
-9.550658,0.409032,-0.449696,-0.024355469999999997,-0.006388319999999999,-0.00891703,1746801364118115
-9.540492,0.412022,-0.450294,-0.025154009999999997,-0.00505742,-0.008384669999999999,1746801384091955
-9.551854,0.40664,-0.48139,-0.02462165,-0.004525059999999999,-0.007719219999999999,1746801404065835
-9.550658,0.405444,-0.46046,-0.024887829999999996,-0.00572287,-0.008384669999999999,1746801424039675
-9.539894,0.407238,-0.459264,-0.024887829999999996,-0.005989049999999999,-0.007453039999999999,1746801444013355
-9.555442,0.41561,-0.458666,-0.02448856,-0.0039927,-0.0079854,1746801463987155
-9.56202,0.40066,-0.465244,-0.023956199999999997,-0.0047912399999999996,-0.00718686,1746801483961035
-9.557236,0.416208,-0.455078,-0.02369002,-0.00625523,-0.00865085,1746801503934835
-9.54707,0.40664,-0.45149,-0.02408929,-0.00505742,-0.008384669999999999,1746801523908615
-9.53511,0.408434,-0.468234,-0.024355469999999997,-0.00505742,-0.008118489999999999,1746801543882475
-9.54707,0.410826,-0.456872,-0.02408929,-0.00519051,-0.008384669999999999,1746801563856295
-9.559628,0.405444,-0.455078,-0.023956199999999997,-0.0053235999999999995,-0.0079854,1746801583830375
-9.547668,0.41262,-0.474214,-0.024222379999999998,-0.005456689999999999,-0.00851776,1746801603804135
-9.551854,0.398866,-0.441324,-0.024355469999999997,-0.0058559599999999995,-0.00865085,1746801623777995
-9.535708,0.4186,-0.449696,-0.023556929999999997,-0.0053235999999999995,-0.00825158,1746801643751915
-9.517768,0.393484,-0.458666,-0.024355469999999997,-0.004924329999999999,-0.00851776,1746801663725715
-9.554246000000001,0.410228,-0.46046,-0.02462165,-0.00519051,-0.0079854,1746801683699715
-9.545276,0.41321800000000003,-0.478998,-0.023556929999999997,-0.0047912399999999996,-0.007453039999999999,1746801703673475
-9.545874,0.398268,-0.477802,-0.02462165,-0.005456689999999999,-0.009050119999999998,1746801723647315
-9.546472,0.432952,-0.458666,-0.02408929,-0.0053235999999999995,-0.009183209999999999,1746801743621175
-9.55305,0.406042,-0.482586,-0.024754739999999997,-0.0053235999999999995,-0.00865085,1746801763595155
-9.535708,0.403052,-0.46345000000000003,-0.023823109999999998,-0.0058559599999999995,-0.007453039999999999,1746801783568995
-9.536306,0.419796,-0.4784,-0.024222379999999998,-0.004525059999999999,-0.009050119999999998,1746801803542755
-9.55305,0.40963,-0.45149,-0.023423839999999998,-0.00519051,-0.009449389999999998,1746801823516715
-9.556638,0.406042,-0.464048,-0.025154009999999997,-0.00465815,-0.0093163,1746801843490595
-9.546472,0.412022,-0.46046,-0.02408929,-0.004525059999999999,-0.008118489999999999,1746801863464475
-9.560226,0.409032,-0.484978,-0.023823109999999998,-0.004924329999999999,-0.00851776,1746801883438435
-9.546472,0.404248,-0.46046,-0.024754739999999997,-0.004391969999999999,-0.009050119999999998,1746801903412275
-9.5381,0.407238,-0.45448,-0.02329075,-0.004525059999999999,-0.008118489999999999,1746801923386015
-9.546472,0.410826,-0.478998,-0.02369002,-0.005589779999999999,-0.008118489999999999,1746801943359835
-9.569196,0.40963,-0.46046,-0.024355469999999997,-0.005589779999999999,-0.0079854,1746801963333695
-9.546472,0.416806,-0.467038,-0.023956199999999997,-0.0047912399999999996,-0.00891703,1746801983307655
-9.562618,0.40365,-0.462254,-0.02462165,-0.004924329999999999,-0.0079854,1746801004281655
-9.557834,0.409032,-0.462852,-0.023956199999999997,-0.0047912399999999996,-0.007453039999999999,1746801024255675
-9.551854,0.423384,-0.473018,-0.024222379999999998,-0.00465815,-0.006654499999999999,1746801044229675
-9.54109,0.41262,-0.468234,-0.024222379999999998,-0.00519051,-0.007719219999999999,1746801064203735
-9.554844000000001,0.407238,-0.46345000000000003,-0.022758389999999996,-0.0058559599999999995,-0.008783939999999999,1746801084177835
-9.539296,0.416208,-0.48976200000000003,-0.023956199999999997,-0.00625523,-0.008118489999999999,1746801104151715
-9.559628,0.405444,-0.473616,-0.024887829999999996,-0.0058559599999999995,-0.008118489999999999,1746801124125455
-9.55305,0.416208,-0.468832,-0.02369002,-0.00465815,-0.00825158,1746801144099315
-9.563216,0.410228,-0.482586,-0.02408929,-0.00465815,-0.008384669999999999,1746801164073255
-9.548266,0.417404,-0.470028,-0.024754739999999997,-0.00572287,-0.009449389999999998,1746801184047215
-9.54707,0.409032,-0.459264,-0.02369002,-0.0047912399999999996,-0.008783939999999999,1746801204021255
-9.549462,0.428766,-0.47242,-0.02369002,-0.00465815,-0.00785231,1746801223995035
-9.539296,0.425776,-0.46046,-0.024222379999999998,-0.00425888,-0.008783939999999999,1746801243968935
-9.53212,0.411424,-0.443716,-0.02462165,-0.0053235999999999995,-0.007453039999999999,1746801263942855
-9.54408,0.41262,-0.47122400000000003,-0.02369002,-0.005456689999999999,-0.00825158,1746801283917015
-9.541688,0.42099200000000003,-0.464048,-0.02462165,-0.004924329999999999,-0.00825158,1746801303890895
-9.543482000000001,0.420394,-0.447902,-0.02462165,-0.005456689999999999,-0.007586129999999999,1746801323864815
-9.547668,0.40365,-0.446108,-0.024355469999999997,-0.0053235999999999995,-0.007453039999999999,1746801343838775
-9.554246000000001,0.414414,-0.477802,-0.023823109999999998,-0.00519051,-0.006388319999999999,1746801363812655
-9.559628,0.40783600000000003,-0.437736,-0.02408929,-0.00425888,-0.00785231,1746801383786515
-9.55006,0.40006200000000003,-0.467038,-0.024355469999999997,-0.0047912399999999996,-0.007586129999999999,1746801403760355
-9.542286,0.414414,-0.456872,-0.024754739999999997,-0.0053235999999999995,-0.007453039999999999,1746801423734315
-9.551256,0.408434,-0.480194,-0.02462165,-0.004391969999999999,-0.00785231,1746801443708255
-9.544678,0.410228,-0.465244,-0.023823109999999998,-0.00425888,-0.00865085,1746801463682055
-9.552452,0.414414,-0.47660600000000003,-0.023823109999999998,-0.005989049999999999,-0.008384669999999999,1746801483655895
-9.557236,0.416208,-0.47660600000000003,-0.023823109999999998,-0.00519051,-0.008384669999999999,1746801503629815
-9.550658,0.42159,-0.449098,-0.023024569999999998,-0.0053235999999999995,-0.00785231,1746801523603655
-9.542884,0.40783600000000003,-0.455676,-0.024355469999999997,-0.00612214,-0.007719219999999999,1746801543577575
-9.551256,0.40664,-0.480194,-0.02408929,-0.0047912399999999996,-0.007719219999999999,1746801563551515
-9.541688,0.41262,-0.485576,-0.024754739999999997,-0.00425888,-0.008783939999999999,1746801583525435
-9.561422,0.390494,-0.435344,-0.02448856,-0.0047912399999999996,-0.00851776,1746801603499395
-9.557236,0.404846,-0.468832,-0.024887829999999996,-0.00465815,-0.00851776,1746801623473295
-9.544678,0.407238,-0.459862,-0.024754739999999997,-0.00519051,-0.008118489999999999,1746801643447075
-9.552452,0.416208,-0.45747,-0.023556929999999997,-0.00505742,-0.0079854,1746801663420795
-9.546472,0.401258,-0.462254,-0.023556929999999997,-0.004525059999999999,-0.00891703,1746801683394535
-9.548266,0.419796,-0.47242,-0.02448856,-0.00465815,-0.00851776,1746801703368375
-9.54408,0.414414,-0.455078,-0.02542019,-0.004391969999999999,-0.00851776,1746801723342215
-9.545276,0.410228,-0.477204,-0.02462165,-0.00425888,-0.00851776,1746801743316075
-9.548864,0.401258,-0.470626,-0.023823109999999998,-0.0058559599999999995,-0.00851776,1746801763290015
-9.545276,0.41561,-0.47660600000000003,-0.024355469999999997,-0.00505742,-0.0079854,1746801783263955
-9.536904,0.406042,-0.474214,-0.02502092,-0.005456689999999999,-0.00825158,1746801803237735
-9.540492,0.401856,-0.453284,-0.02502092,-0.0047912399999999996,-0.0079854,1746801823211515
-9.556638,0.403052,-0.481988,-0.02502092,-0.005456689999999999,-0.007719219999999999,1746801843185275
-9.551854,0.409032,-0.47660600000000003,-0.025154009999999997,-0.0039927,-0.00825158,1746801863159175
-9.561422,0.40963,-0.453882,-0.023956199999999997,-0.00465815,-0.00718686,1746801883133175
-9.552452,0.412022,-0.453882,-0.023823109999999998,-0.004391969999999999,-0.0079854,1746801903106995
-9.54109,0.405444,-0.480792,-0.02448856,-0.004525059999999999,-0.00851776,1746801923080595
-9.539296,0.409032,-0.480792,-0.02462165,-0.004391969999999999,-0.008783939999999999,1746801943054515
-9.542884,0.408434,-0.459264,-0.02448856,-0.006388319999999999,-0.00891703,1746801963028375
-9.554246000000001,0.40664,-0.446108,-0.023823109999999998,-0.00519051,-0.007719219999999999,1746801983002195
-9.548266,0.405444,-0.447902,-0.02462165,-0.004525059999999999,-0.0079854,1746801003976095
-9.55305,0.398866,-0.468234,-0.023423839999999998,-0.004924329999999999,-0.008384669999999999,1746801023950035
-9.559628,0.404846,-0.450294,-0.024222379999999998,-0.004391969999999999,-0.00891703,1746801043923935
-9.542884,0.416806,-0.45448,-0.023823109999999998,-0.00465815,-0.00851776,1746801063897835
-9.54707,0.412022,-0.465842,-0.023956199999999997,-0.0058559599999999995,-0.0079854,1746801083871775
-9.557834,0.393484,-0.474812,-0.02408929,-0.00612214,-0.008118489999999999,1746801103845755
-9.54707,0.410228,-0.476008,-0.024355469999999997,-0.0058559599999999995,-0.009050119999999998,1746801123819715
-9.551256,0.399464,-0.473018,-0.024355469999999997,-0.0053235999999999995,-0.007453039999999999,1746801143793575
-9.542884,0.40783600000000003,-0.47660600000000003,-0.024222379999999998,-0.00519051,-0.008384669999999999,1746801163767455
-9.550658,0.397072,-0.45448,-0.024887829999999996,-0.00519051,-0.008783939999999999,1746801183741355
-9.552452,0.406042,-0.45149,-0.024222379999999998,-0.005456689999999999,-0.006654499999999999,1746801203715295
-9.563814,0.419198,-0.47242,-0.02542019,-0.00519051,-0.00825158,1746801223689155
-9.554246000000001,0.410826,-0.48139,-0.02502092,-0.005589779999999999,-0.0093163,1746801243662955
-9.55305,0.398268,-0.481988,-0.024887829999999996,-0.00505742,-0.009050119999999998,1746801263636975
-9.54109,0.40066,-0.465842,-0.02462165,-0.00465815,-0.00865085,1746801283610955
-9.549462,0.40365,-0.461058,-0.024754739999999997,-0.00505742,-0.00865085,1746801303584975
-9.53511,0.416208,-0.464646,-0.023823109999999998,-0.0047912399999999996,-0.0079854,1746801323558895
-9.55305,0.432354,-0.45448,-0.023956199999999997,-0.0047912399999999996,-0.007053769999999999,1746801343532755
-9.54408,0.416806,-0.480194,-0.024355469999999997,-0.004924329999999999,-0.0079854,1746801363506555
-9.55305,0.40963,-0.46345000000000003,-0.02542019,-0.00519051,-0.00825158,1746801383480455
-9.572186,0.40006200000000003,-0.465244,-0.02462165,-0.0053235999999999995,-0.0073199499999999995,1746801403454395
-9.543482000000001,0.42458,-0.474812,-0.024887829999999996,-0.004924329999999999,-0.00825158,1746801423428215
-9.558432,0.409032,-0.488566,-0.024355469999999997,-0.00465815,-0.008118489999999999,1746801443402075
-9.541688,0.429364,-0.473616,-0.024355469999999997,-0.00519051,-0.0073199499999999995,1746801463376015
-9.545874,0.407238,-0.478998,-0.024222379999999998,-0.0053235999999999995,-0.00825158,1746801483349895
-9.54707,0.410228,-0.462852,-0.024754739999999997,-0.005989049999999999,-0.008118489999999999,1746801503323835
-9.540492,0.414414,-0.49036,-0.025154009999999997,-0.00519051,-0.007719219999999999,1746801523297595
-9.554246000000001,0.40006200000000003,-0.462254,-0.025686369999999997,-0.005456689999999999,-0.007453039999999999,1746801543271475
-9.548864,0.407238,-0.464646,-0.02448856,-0.00465815,-0.008384669999999999,1746801563245375
-9.55006,0.401258,-0.467038,-0.02502092,-0.005589779999999999,-0.008118489999999999,1746801583219195
-9.55903,0.401856,-0.465244,-0.024754739999999997,-0.004391969999999999,-0.007586129999999999,1746801603193115
-9.554844000000001,0.410228,-0.465244,-0.02448856,-0.00505742,-0.007586129999999999,1746801623167055
-9.552452,0.419198,-0.455078,-0.024355469999999997,-0.00465815,-0.0073199499999999995,1746801643140995
-9.55006,0.40963,-0.45747,-0.02408929,-0.0047912399999999996,-0.008118489999999999,1746801663114935
-9.547668,0.411424,-0.46943,-0.024222379999999998,-0.005456689999999999,-0.008384669999999999,1746801683088935
-9.55006,0.418002,-0.450294,-0.024355469999999997,-0.00465815,-0.009050119999999998,1746801703062815
-9.543482000000001,0.402454,-0.477802,-0.024222379999999998,-0.004525059999999999,-0.00825158,1746801723036655
-9.552452,0.392288,-0.459862,-0.02462165,-0.0047912399999999996,-0.00851776,1746801743010595
-9.55604,0.404248,-0.44551,-0.02462165,-0.005456689999999999,-0.007719219999999999,1746801762984395
-9.528532,0.411424,-0.480792,-0.02408929,-0.00505742,-0.008118489999999999,1746801782958255
-9.552452,0.42458,-0.470028,-0.023956199999999997,-0.00519051,-0.007719219999999999,1746801802932175
-9.548864,0.417404,-0.46943,-0.023956199999999997,-0.00505742,-0.0073199499999999995,1746801822906035
-9.560824,0.411424,-0.492154,-0.024754739999999997,-0.0058559599999999995,-0.007053769999999999,1746801842879935
-9.543482000000001,0.42099200000000003,-0.498732,-0.02448856,-0.005589779999999999,-0.007719219999999999,1746801862853815
-9.533914,0.411424,-0.452088,-0.025154009999999997,-0.00572287,-0.009050119999999998,1746801882827755
-9.554246000000001,0.422786,-0.46943,-0.02502092,-0.0053235999999999995,-0.007453039999999999,1746801902801495
-9.551256,0.402454,-0.464646,-0.024222379999999998,-0.005456689999999999,-0.007586129999999999,1746801922775215
-9.547668,0.412022,-0.467038,-0.024355469999999997,-0.00612214,-0.00851776,1746801942748935
-9.551854,0.413816,-0.462254,-0.02502092,-0.00465815,-0.00785231,1746801962722755
-9.554844000000001,0.40365,-0.452088,-0.02448856,-0.00465815,-0.009050119999999998,1746801982696555
-9.55305,0.42159,-0.46644,-0.025154009999999997,-0.00572287,-0.009050119999999998,1746801003670515
-9.544678,0.41561,-0.464048,-0.02502092,-0.00465815,-0.0079854,1746801023644295
-9.560824,0.4186,-0.43953000000000003,-0.023423839999999998,-0.00519051,-0.00865085,1746801043618115
-9.55903,0.405444,-0.477802,-0.02408929,-0.00519051,-0.00825158,1746801063592055
-9.546472,0.398866,-0.477802,-0.02448856,-0.004924329999999999,-0.007719219999999999,1746801083565955
-9.539894,0.405444,-0.480792,-0.023823109999999998,-0.0047912399999999996,-0.007586129999999999,1746801103539695
-9.55604,0.407238,-0.462852,-0.024222379999999998,-0.0047912399999999996,-0.00785231,1746801123513535
-9.553648,0.40006200000000003,-0.456872,-0.024887829999999996,-0.00505742,-0.008118489999999999,1746801143487375
-9.550658,0.41561,-0.471822,-0.02462165,-0.004924329999999999,-0.00865085,1746801163461295
-9.552452,0.402454,-0.443118,-0.023956199999999997,-0.00519051,-0.008118489999999999,1746801183435255
-9.552452,0.405444,-0.46046,-0.024887829999999996,-0.00572287,-0.007586129999999999,1746801203409215
-9.55006,0.42159,-0.477802,-0.023556929999999997,-0.00625523,-0.007586129999999999,1746801223383175
-9.554844000000001,0.401856,-0.46046,-0.02408929,-0.005589779999999999,-0.00785231,1746801243356995
-9.555442,0.4186,-0.464048,-0.023423839999999998,-0.005456689999999999,-0.0079854,1746801263330855
-9.557236,0.418002,-0.48139,-0.023157659999999997,-0.00465815,-0.008384669999999999,1746801283304615
-9.552452,0.41561,-0.46644,-0.025154009999999997,-0.00465815,-0.0079854,1746801303278455
-9.554844000000001,0.414414,-0.45806800000000003,-0.025686369999999997,-0.0047912399999999996,-0.00851776,1746801323252175
-9.543482000000001,0.412022,-0.456274,-0.023823109999999998,-0.00425888,-0.00865085,1746801343225895
-9.55006,0.412022,-0.477802,-0.023423839999999998,-0.0047912399999999996,-0.0079854,1746801363199715
-9.545874,0.419198,-0.48139,-0.02462165,-0.005989049999999999,-0.00851776,1746801383173395
-9.543482000000001,0.411424,-0.48139,-0.02448856,-0.0053235999999999995,-0.0079854,1746801403147275
-9.545276,0.40963,-0.462852,-0.02448856,-0.005456689999999999,-0.007453039999999999,1746801423121195
-9.537502,0.40963,-0.477204,-0.024887829999999996,-0.00505742,-0.00825158,1746801443094995
-9.55305,0.407238,-0.46943,-0.024887829999999996,-0.00519051,-0.007586129999999999,1746801463068815
-9.533914,0.39767,-0.49634,-0.02448856,-0.005989049999999999,-0.00785231,1746801483042535
-9.548864,0.410228,-0.453284,-0.025154009999999997,-0.005589779999999999,-0.00785231,1746801503016455
-9.545874,0.405444,-0.45448,-0.025287099999999996,-0.004391969999999999,-0.007719219999999999,1746801522990275
-9.551854,0.404846,-0.467038,-0.02448856,-0.005589779999999999,-0.007586129999999999,1746801542964175
-9.54707,0.41561,-0.453284,-0.023823109999999998,-0.00505742,-0.008384669999999999,1746801562938095
-9.555442,0.416806,-0.467038,-0.024222379999999998,-0.004391969999999999,-0.007453039999999999,1746801582911995
-9.535708,0.42099200000000003,-0.467038,-0.023423839999999998,-0.00505742,-0.007053769999999999,1746801602885855
-9.545874,0.40365,-0.455676,-0.023823109999999998,-0.00412579,-0.0079854,1746801622859755
-9.551256,0.41321800000000003,-0.453882,-0.024222379999999998,-0.00412579,-0.00865085,1746801642833635
-9.542286,0.42159,-0.480194,-0.02408929,-0.0047912399999999996,-0.00825158,1746801662807695
-9.560226,0.419796,-0.484978,-0.023956199999999997,-0.00465815,-0.0079854,1746801682781495
-9.54707,0.410826,-0.450892,-0.02408929,-0.00412579,-0.00825158,1746801702755495
-9.541688,0.4186,-0.47242,-0.024754739999999997,-0.00505742,-0.008118489999999999,1746801722729415
-9.556638,0.404846,-0.478998,-0.02462165,-0.004391969999999999,-0.00891703,1746801742703635
-9.560824,0.41561,-0.470028,-0.02448856,-0.004924329999999999,-0.00865085,1746801762677535
-9.545874,0.39767,-0.456872,-0.02369002,-0.0053235999999999995,-0.008783939999999999,1746801782651435
-9.541688,0.41321800000000003,-0.473018,-0.023823109999999998,-0.0047912399999999996,-0.008384669999999999,1746801802625335
-9.532718000000001,0.412022,-0.47242,-0.025553279999999998,-0.0047912399999999996,-0.0079854,1746801822599055
-9.546472,0.40664,-0.48139,-0.024887829999999996,-0.00412579,-0.00785231,1746801842572795
-9.557236,0.414414,-0.458666,-0.02462165,-0.00505742,-0.00851776,1746801862546655
-9.563216,0.410826,-0.482586,-0.025154009999999997,-0.0047912399999999996,-0.0093163,1746801882520595
-9.556638,0.41262,-0.46943,-0.02408929,-0.004924329999999999,-0.00891703,1746801902494435
-9.544678,0.406042,-0.48139,-0.023956199999999997,-0.005456689999999999,-0.00718686,1746801922468335
-9.539296,0.415012,-0.459862,-0.024754739999999997,-0.004924329999999999,-0.00891703,1746801942442135
-9.548266,0.413816,-0.464646,-0.023823109999999998,-0.00519051,-0.00851776,1746801962416075
-9.551256,0.423384,-0.45806800000000003,-0.023956199999999997,-0.00519051,-0.008783939999999999,1746801982390035
-9.536904,0.409032,-0.468832,-0.024355469999999997,-0.004924329999999999,-0.007586129999999999,1746801003363875
-9.549462,0.406042,-0.467636,-0.024754739999999997,-0.00412579,-0.007453039999999999,1746801023337895
-9.545276,0.409032,-0.465842,-0.024887829999999996,-0.0038596099999999994,-0.00825158,1746801043311815
-9.54109,0.392886,-0.478998,-0.024887829999999996,-0.004924329999999999,-0.00865085,1746801063285615
-9.547668,0.393484,-0.462254,-0.025287099999999996,-0.004924329999999999,-0.008118489999999999,1746801083259555
-9.54408,0.422188,-0.473018,-0.02448856,-0.004924329999999999,-0.007719219999999999,1746801103233415
-9.542286,0.423982,-0.477802,-0.02408929,-0.005456689999999999,-0.008118489999999999,1746801123207495
-9.557834,0.412022,-0.440726,-0.023823109999999998,-0.004924329999999999,-0.008783939999999999,1746801143181315
-9.55305,0.415012,-0.45747,-0.024887829999999996,-0.00519051,-0.00865085,1746801163155195
-9.54707,0.401258,-0.46644,-0.02448856,-0.00519051,-0.0079854,1746801183129035
-9.544678,0.40783600000000003,-0.48737,-0.023956199999999997,-0.0053235999999999995,-0.008384669999999999,1746801203102895
-9.533914,0.415012,-0.465244,-0.023423839999999998,-0.00572287,-0.008118489999999999,1746801223076755
-9.542884,0.408434,-0.47541,-0.02369002,-0.004525059999999999,-0.00825158,1746801243050695
-9.555442,0.42159,-0.486174,-0.02448856,-0.005456689999999999,-0.007453039999999999,1746801263024595
-9.554844000000001,0.406042,-0.482586,-0.02448856,-0.00359343,-0.00785231,1746801282998475
-9.535708,0.426972,-0.473018,-0.02408929,-0.004391969999999999,-0.00851776,1746801302972335
-9.556638,0.41321800000000003,-0.479596,-0.024887829999999996,-0.005456689999999999,-0.009183209999999999,1746801322946255
-9.553648,0.405444,-0.465842,-0.024887829999999996,-0.0053235999999999995,-0.00851776,1746801342919955
-9.560824,0.40963,-0.467038,-0.02448856,-0.00505742,-0.00785231,1746801362893795
-9.54408,0.4186,-0.484978,-0.024222379999999998,-0.0053235999999999995,-0.008384669999999999,1746801382867375
-9.554844000000001,0.420394,-0.455676,-0.024355469999999997,-0.005456689999999999,-0.008384669999999999,1746801402841215
-9.551256,0.413816,-0.450294,-0.025287099999999996,-0.00572287,-0.00865085,1746801422815175
-9.549462,0.414414,-0.486772,-0.02542019,-0.0053235999999999995,-0.00891703,1746801442789015
-9.55305,0.419796,-0.468234,-0.024355469999999997,-0.004924329999999999,-0.00851776,1746801462762935
-9.55604,0.422786,-0.477802,-0.025154009999999997,-0.00425888,-0.008384669999999999,1746801482736955
-9.557236,0.416208,-0.47660600000000003,-0.02502092,-0.00519051,-0.00825158,1746801502710835
-9.546472,0.419198,-0.481988,-0.02448856,-0.00425888,-0.008384669999999999,1746801522684615
-9.536904,0.412022,-0.467636,-0.02408929,-0.0053235999999999995,-0.007719219999999999,1746801542658515
-9.55903,0.404846,-0.453882,-0.024222379999999998,-0.00519051,-0.00785231,1746801562632415
-9.537502,0.403052,-0.476008,-0.024222379999999998,-0.0053235999999999995,-0.00851776,1746801582606335
-9.553648,0.422188,-0.45806800000000003,-0.024222379999999998,-0.005589779999999999,-0.009050119999999998,1746801602580195
-9.539296,0.415012,-0.465842,-0.023956199999999997,-0.004525059999999999,-0.00785231,1746801622554035
-9.555442,0.405444,-0.47122400000000003,-0.024355469999999997,-0.00425888,-0.00785231,1746801642527995
-9.550658,0.415012,-0.450294,-0.024887829999999996,-0.004924329999999999,-0.00785231,1746801662501755
-9.534512,0.412022,-0.4784,-0.02289148,-0.0053235999999999995,-0.008118489999999999,1746801682475615
-9.55305,0.406042,-0.452088,-0.02369002,-0.0047912399999999996,-0.008384669999999999,1746801702449535
-9.565010000000001,0.40783600000000003,-0.464646,-0.02502092,-0.00505742,-0.007453039999999999,1746801722423395
-9.539296,0.40963,-0.479596,-0.02448856,-0.00505742,-0.00865085,1746801742397235
-9.542884,0.406042,-0.47541,-0.02369002,-0.00465815,-0.00825158,1746801762370975
-9.537502,0.404248,-0.44551,-0.023823109999999998,-0.00505742,-0.00851776,1746801782344795
-9.551854,0.40963,-0.46644,-0.025287099999999996,-0.004525059999999999,-0.00851776,1746801802318635
-9.560824,0.404846,-0.449098,-0.02408929,-0.00505742,-0.008783939999999999,1746801822292555
-9.54408,0.42458,-0.459862,-0.024222379999999998,-0.004924329999999999,-0.00865085,1746801842266435
-9.542286,0.41262,-0.46644,-0.023823109999999998,-0.0058559599999999995,-0.007586129999999999,1746801862240375
-9.55903,0.399464,-0.474214,-0.02369002,-0.00519051,-0.007719219999999999,1746801882214235
-9.538698,0.404846,-0.462852,-0.02289148,-0.0053235999999999995,-0.00891703,1746801902188095
-9.55006,0.413816,-0.473616,-0.024222379999999998,-0.0047912399999999996,-0.00785231,1746801922161975
-9.543482000000001,0.412022,-0.46046,-0.024355469999999997,-0.00465815,-0.007586129999999999,1746801942135815
-9.536306,0.409032,-0.47541,-0.02462165,-0.004924329999999999,-0.009050119999999998,1746801962109675
-9.554844000000001,0.407238,-0.459862,-0.02462165,-0.004525059999999999,-0.008118489999999999,1746801982083595
-9.546472,0.405444,-0.482586,-0.023823109999999998,-0.0047912399999999996,-0.0073199499999999995,1746801003057595
-9.556638,0.411424,-0.467038,-0.023956199999999997,-0.00505742,-0.00785231,1746801023031495
-9.54707,0.40365,-0.456872,-0.02408929,-0.00505742,-0.00825158,1746801043005455
-9.544678,0.416208,-0.46046,-0.02462165,-0.005456689999999999,-0.008118489999999999,1746801062979175
-9.557236,0.412022,-0.465842,-0.025686369999999997,-0.005989049999999999,-0.008384669999999999,1746801082953135
-9.55903,0.40783600000000003,-0.471822,-0.02462165,-0.0047912399999999996,-0.007719219999999999,1746801102927075
-9.540492,0.42099200000000003,-0.440128,-0.02462165,-0.0047912399999999996,-0.0079854,1746801122900855
-9.565010000000001,0.40783600000000003,-0.461656,-0.024355469999999997,-0.004924329999999999,-0.00851776,1746801142874675
-9.552452,0.41262,-0.449098,-0.02408929,-0.0038596099999999994,-0.009050119999999998,1746801162848635
-9.539894,0.40365,-0.467636,-0.023024569999999998,-0.004391969999999999,-0.00851776,1746801182822535
-9.55006,0.395876,-0.452088,-0.02462165,-0.004924329999999999,-0.00851776,1746801202796355
-9.52913,0.407238,-0.465842,-0.02462165,-0.004924329999999999,-0.00851776,1746801222770295
-9.556638,0.4186,-0.474812,-0.024222379999999998,-0.004525059999999999,-0.0079854,1746801242744195
-9.563216,0.41561,-0.483184,-0.024754739999999997,-0.005456689999999999,-0.00785231,1746801262718095
-9.553648,0.408434,-0.462852,-0.023956199999999997,-0.005456689999999999,-0.00825158,1746801282691995
-9.553648,0.401856,-0.455078,-0.024222379999999998,-0.00425888,-0.00825158,1746801302666015
-9.544678,0.397072,-0.473616,-0.02408929,-0.00519051,-0.008384669999999999,1746801322640035
-9.548864,0.398268,-0.47660600000000003,-0.02408929,-0.0053235999999999995,-0.008118489999999999,1746801342613995
-9.553648,0.408434,-0.4784,-0.024355469999999997,-0.00465815,-0.0079854,1746801362587915
-9.553648,0.404248,-0.464646,-0.023956199999999997,-0.005989049999999999,-0.008783939999999999,1746801382561795
-9.551854,0.40963,-0.473616,-0.02502092,-0.00519051,-0.00865085,1746801402535695
-9.549462,0.422786,-0.443118,-0.025154009999999997,-0.0047912399999999996,-0.008783939999999999,1746801422509755
-9.547668,0.397072,-0.440726,-0.024887829999999996,-0.00425888,-0.007453039999999999,1746801442483755
-9.55604,0.40365,-0.473018,-0.024222379999999998,-0.005456689999999999,-0.008384669999999999,1746801462457615
-9.565608000000001,0.399464,-0.477802,-0.02462165,-0.006388319999999999,-0.00825158,1746801482431575
-9.552452,0.399464,-0.450892,-0.023956199999999997,-0.00612214,-0.0079854,1746801502405535
-9.570392,0.405444,-0.476008,-0.025287099999999996,-0.00425888,-0.006920679999999999,1746801522379495
-9.569196,0.425776,-0.461656,-0.025553279999999998,-0.0039927,-0.00865085,1746801542353355
-9.561422,0.416806,-0.459862,-0.02448856,-0.005456689999999999,-0.00851776,1746801562327255
-9.555442,0.406042,-0.44551,-0.02462165,-0.004924329999999999,-0.009050119999999998,1746801582301115
-9.545874,0.40963,-0.46943,-0.024355469999999997,-0.004924329999999999,-0.0073199499999999995,1746801602274955
-9.541688,0.41262,-0.48438000000000003,-0.024355469999999997,-0.00412579,-0.006920679999999999,1746801622248835
-9.54707,0.404846,-0.458666,-0.02502092,-0.004391969999999999,-0.007586129999999999,1746801642222655
-9.575774000000001,0.401856,-0.467038,-0.024355469999999997,-0.0047912399999999996,-0.00825158,1746801662196535
-9.552452,0.410228,-0.467038,-0.02448856,-0.004391969999999999,-0.00825158,1746801682170395
-9.562618,0.414414,-0.480194,-0.025154009999999997,-0.00425888,-0.009050119999999998,1746801702144335
-9.54408,0.406042,-0.46046,-0.024355469999999997,-0.00505742,-0.00785231,1746801722118135
-9.557236,0.405444,-0.47242,-0.02462165,-0.006521409999999999,-0.00851776,1746801742091995
-9.558432,0.40783600000000003,-0.4485,-0.02369002,-0.0058559599999999995,-0.008384669999999999,1746801762065875
-9.557834,0.413816,-0.450892,-0.023157659999999997,-0.00505742,-0.00785231,1746801782039815
-9.567402,0.397072,-0.47660600000000003,-0.023423839999999998,-0.005456689999999999,-0.0079854,1746801802013595
-9.554844000000001,0.407238,-0.477204,-0.023956199999999997,-0.00505742,-0.008118489999999999,1746801821987435
-9.55903,0.394082,-0.459264,-0.024754739999999997,-0.004924329999999999,-0.00825158,1746801841961355
-9.544678,0.39767,-0.4485,-0.02462165,-0.00519051,-0.008118489999999999,1746801861935175
-9.543482000000001,0.404846,-0.443716,-0.02502092,-0.00425888,-0.008384669999999999,1746801881909095
-9.55903,0.413816,-0.46644,-0.02462165,-0.0037265199999999997,-0.008118489999999999,1746801901883055
-9.563814,0.413816,-0.49335,-0.024887829999999996,-0.00505742,-0.00825158,1746801921856855
-9.570392,0.413816,-0.47541,-0.023823109999999998,-0.00572287,-0.00891703,1746801941830755
-9.557834,0.417404,-0.458666,-0.02408929,-0.0058559599999999995,-0.00825158,1746801961804535
-9.554246000000001,0.413816,-0.470028,-0.02369002,-0.00505742,-0.00718686,1746801981778355
-9.551256,0.398866,-0.455676,-0.024887829999999996,-0.00465815,-0.00785231,1746801002752135
-9.562618,0.410826,-0.464048,-0.025154009999999997,-0.00505742,-0.00825158,1746801022726115
-9.546472,0.42099200000000003,-0.46345000000000003,-0.02502092,-0.00572287,-0.00718686,1746801042700055
-9.55006,0.40963,-0.455676,-0.02448856,-0.004525059999999999,-0.007719219999999999,1746801062673915
-9.560824,0.413816,-0.468832,-0.02448856,-0.00625523,-0.00718686,1746801082647815
-9.548266,0.408434,-0.473616,-0.023956199999999997,-0.0039927,-0.007586129999999999,1746801102621635
-9.550658,0.392886,-0.46046,-0.023423839999999998,-0.004525059999999999,-0.007453039999999999,1746801122595455
-9.54408,0.401258,-0.45448,-0.02542019,-0.005456689999999999,-0.00865085,1746801142569275
-9.551256,0.410228,-0.459264,-0.025287099999999996,-0.005456689999999999,-0.0079854,1746801162543015
-9.5381,0.398866,-0.468234,-0.02408929,-0.00519051,-0.00718686,1746801182516835
-9.551256,0.414414,-0.46644,-0.02448856,-0.00519051,-0.00851776,1746801202490595
-9.550658,0.416208,-0.473018,-0.023556929999999997,-0.0053235999999999995,-0.00785231,1746801222464535
-9.541688,0.405444,-0.483184,-0.02408929,-0.005589779999999999,-0.00865085,1746801242438515
-9.536306,0.415012,-0.486772,-0.02408929,-0.0053235999999999995,-0.008118489999999999,1746801262412355
-9.540492,0.418002,-0.467038,-0.023823109999999998,-0.005456689999999999,-0.00785231,1746801282386175
-9.551256,0.390494,-0.455676,-0.02408929,-0.0053235999999999995,-0.006920679999999999,1746801302360095
-9.554844000000001,0.401856,-0.464646,-0.02448856,-0.00505742,-0.008384669999999999,1746801322333935
-9.559628,0.40006200000000003,-0.465244,-0.02462165,-0.00425888,-0.0079854,1746801342307835
-9.55604,0.401856,-0.46345000000000003,-0.024355469999999997,-0.00465815,-0.007586129999999999,1746801362281855
-9.557236,0.403052,-0.473616,-0.024355469999999997,-0.004924329999999999,-0.008118489999999999,1746801382255755
-9.550658,0.41262,-0.45268600000000003,-0.024222379999999998,-0.005589779999999999,-0.00785231,1746801402229635
-9.55006,0.398268,-0.464048,-0.02369002,-0.0053235999999999995,-0.0079854,1746801422203575
-9.554246000000001,0.407238,-0.46345000000000003,-0.023157659999999997,-0.00519051,-0.00785231,1746801442177515
-9.53511,0.409032,-0.471822,-0.023423839999999998,-0.0058559599999999995,-0.00825158,1746801462151395
-9.54109,0.40783600000000003,-0.483782,-0.024222379999999998,-0.005456689999999999,-0.007453039999999999,1746801482125295
-9.553648,0.411424,-0.44491200000000003,-0.024222379999999998,-0.005589779999999999,-0.008783939999999999,1746801502099275
-9.552452,0.40664,-0.465244,-0.024887829999999996,-0.00612214,-0.009050119999999998,1746801522073055
-9.557834,0.397072,-0.453882,-0.02448856,-0.00505742,-0.008783939999999999,1746801542046895
-9.547668,0.41321800000000003,-0.477204,-0.025553279999999998,-0.00412579,-0.008384669999999999,1746801562020735
-9.548266,0.410826,-0.468234,-0.025154009999999997,-0.0047912399999999996,-0.008384669999999999,1746801581994495
-9.542884,0.42757,-0.45448,-0.024754739999999997,-0.005589779999999999,-0.00825158,1746801601968375
-9.539894,0.402454,-0.471822,-0.02448856,-0.004525059999999999,-0.007719219999999999,1746801621942215
-9.5381,0.41321800000000003,-0.4784,-0.023024569999999998,-0.0047912399999999996,-0.0079854,1746801641916195
-9.542286,0.398268,-0.456872,-0.024355469999999997,-0.00465815,-0.0079854,1746801661890575
-9.54408,0.395876,-0.490958,-0.025154009999999997,-0.005589779999999999,-0.007053769999999999,1746801681864395
-9.55305,0.395876,-0.491556,-0.024355469999999997,-0.0047912399999999996,-0.00785231,1746801701838195
-9.550658,0.39468000000000003,-0.453284,-0.02448856,-0.004391969999999999,-0.006920679999999999,1746801721812035
-9.550658,0.397072,-0.468832,-0.02369002,-0.00519051,-0.00718686,1746801741785975
-9.554246000000001,0.402454,-0.455676,-0.02408929,-0.00465815,-0.00718686,1746801761759795
-9.554246000000001,0.406042,-0.46046,-0.023556929999999997,-0.0053235999999999995,-0.0079854,1746801781733615
-9.55305,0.416208,-0.45806800000000003,-0.023956199999999997,-0.006654499999999999,-0.008118489999999999,1746801801707675
-9.55305,0.404248,-0.47660600000000003,-0.02369002,-0.00519051,-0.007453039999999999,1746801821681575
-9.531522,0.409032,-0.47541,-0.02448856,-0.00505742,-0.006920679999999999,1746801841655455
-9.54109,0.40963,-0.464048,-0.023423839999999998,-0.005989049999999999,-0.00785231,1746801861629255
-9.555442,0.4186,-0.471822,-0.023423839999999998,-0.0053235999999999995,-0.00865085,1746801881603135
-9.554844000000001,0.410826,-0.456274,-0.023823109999999998,-0.004525059999999999,-0.00891703,1746801901577115
-9.557834,0.40006200000000003,-0.464646,-0.024222379999999998,-0.0047912399999999996,-0.009050119999999998,1746801921551095
-9.551256,0.40963,-0.459862,-0.024355469999999997,-0.005989049999999999,-0.0079854,1746801941524915
-9.565608000000001,0.40664,-0.462254,-0.023823109999999998,-0.0053235999999999995,-0.00851776,1746801961498875
-9.561422,0.403052,-0.465842,-0.023823109999999998,-0.004924329999999999,-0.007453039999999999,1746801981472775
-9.547668,0.402454,-0.465842,-0.02502092,-0.0047912399999999996,-0.008384669999999999,1746801002446475
-9.554246000000001,0.40783600000000003,-0.45268600000000003,-0.025154009999999997,-0.004391969999999999,-0.00785231,1746801022420315
-9.554246000000001,0.418002,-0.45448,-0.025154009999999997,-0.00412579,-0.007053769999999999,1746801042394295
-9.546472,0.423982,-0.45268600000000003,-0.02502092,-0.00465815,-0.0073199499999999995,1746801062368175
-9.566206,0.40365,-0.468234,-0.024355469999999997,-0.00465815,-0.00785231,1746801082342075
-9.560824,0.40783600000000003,-0.465842,-0.023556929999999997,-0.00465815,-0.008783939999999999,1746801102316155
-9.545874,0.413816,-0.470028,-0.024355469999999997,-0.0039927,-0.0079854,1746801122290255
-9.55305,0.403052,-0.46345000000000003,-0.024355469999999997,-0.005589779999999999,-0.009449389999999998,1746801142264055
-9.539894,0.416208,-0.455078,-0.02408929,-0.00519051,-0.00891703,1746801162238095
-9.557834,0.403052,-0.465842,-0.02369002,-0.00519051,-0.008384669999999999,1746801182212055
-9.5381,0.393484,-0.456872,-0.024355469999999997,-0.00519051,-0.0079854,1746801202186135
-9.550658,0.404846,-0.47242,-0.024355469999999997,-0.0058559599999999995,-0.00785231,1746801222159975
-9.545874,0.406042,-0.450294,-0.02502092,-0.0039927,-0.00865085,1746801242133915
-9.548864,0.391092,-0.450892,-0.024754739999999997,-0.00412579,-0.008118489999999999,1746801262107755
-9.560226,0.406042,-0.449696,-0.024355469999999997,-0.004924329999999999,-0.0079854,1746801282081635
-9.55006,0.40365,-0.443118,-0.02408929,-0.00519051,-0.008118489999999999,1746801302054955
-9.559628,0.398866,-0.455676,-0.024222379999999998,-0.00425888,-0.0079854,1746801322028815
-9.557236,0.403052,-0.467038,-0.024355469999999997,-0.00519051,-0.008783939999999999,1746801342002695
-9.5381,0.404248,-0.464048,-0.023556929999999997,-0.00572287,-0.008783939999999999,1746801361976515
-9.557834,0.414414,-0.46644,-0.02542019,-0.004525059999999999,-0.009183209999999999,1746801381950395
-9.55006,0.414414,-0.4784,-0.02408929,-0.004924329999999999,-0.007719219999999999,1746801401924515
-9.552452,0.396474,-0.468234,-0.02408929,-0.004924329999999999,-0.0073199499999999995,1746801421898595
-9.553648,0.395278,-0.452088,-0.025287099999999996,-0.004525059999999999,-0.008118489999999999,1746801441872675
-9.559628,0.40664,-0.447304,-0.02462165,-0.00465815,-0.007719219999999999,1746801461846835
-9.542286,0.418002,-0.476008,-0.02448856,-0.005589779999999999,-0.00865085,1746801481820795
-9.551854,0.428168,-0.456872,-0.02462165,-0.00465815,-0.008384669999999999,1746801501794795
-9.550658,0.40783600000000003,-0.48976200000000003,-0.024355469999999997,-0.0047912399999999996,-0.008384669999999999,1746801521768755
-9.55006,0.409032,-0.47660600000000003,-0.024355469999999997,-0.005456689999999999,-0.007719219999999999,1746801541742615
-9.545276,0.42757,-0.471822,-0.023956199999999997,-0.004391969999999999,-0.00785231,1746801561716755
-9.565608000000001,0.414414,-0.47242,-0.024754739999999997,-0.00412579,-0.007453039999999999,1746801581690655
-9.554246000000001,0.413816,-0.477802,-0.02502092,-0.00519051,-0.007453039999999999,1746801601664515
-9.54707,0.420394,-0.464646,-0.025952549999999998,-0.00465815,-0.0079854,1746801621638575
-9.545874,0.40783600000000003,-0.470626,-0.025287099999999996,-0.004924329999999999,-0.00785231,1746801641612555
-9.547668,0.407238,-0.45747,-0.024754739999999997,-0.00425888,-0.00785231,1746801661586475
-9.558432,0.403052,-0.45448,-0.024754739999999997,-0.004391969999999999,-0.00825158,1746801681560415
-9.54707,0.406042,-0.456872,-0.02462165,-0.0047912399999999996,-0.008384669999999999,1746801701534435
-9.547668,0.41561,-0.447304,-0.024222379999999998,-0.0047912399999999996,-0.00825158,1746801721508275
-9.554844000000001,0.404846,-0.497536,-0.024754739999999997,-0.004924329999999999,-0.00825158,1746801741481935
-9.55305,0.40783600000000003,-0.471822,-0.02462165,-0.00465815,-0.009183209999999999,1746801761455635
-9.545874,0.401856,-0.45149,-0.025154009999999997,-0.00519051,-0.00825158,1746801781429675
-9.54707,0.404846,-0.474214,-0.024222379999999998,-0.004525059999999999,-0.00785231,1746801801403595
-9.538698,0.398268,-0.455078,-0.02448856,-0.0058559599999999995,-0.008118489999999999,1746801821377475
-9.543482000000001,0.39767,-0.476008,-0.024222379999999998,-0.004924329999999999,-0.009582479999999999,1746801841351235
-9.547668,0.40783600000000003,-0.44252,-0.02502092,-0.00465815,-0.008384669999999999,1746801861325115
-9.551854,0.407238,-0.470626,-0.024355469999999997,-0.00465815,-0.009183209999999999,1746801881299115
-9.552452,0.397072,-0.473616,-0.023823109999999998,-0.0053235999999999995,-0.00785231,1746801901273115
-9.543482000000001,0.41321800000000003,-0.490958,-0.024222379999999998,-0.00465815,-0.007586129999999999,1746801921247315
-9.545276,0.41321800000000003,-0.447304,-0.02448856,-0.0047912399999999996,-0.008783939999999999,1746801941221295
-9.539894,0.40664,-0.461656,-0.024754739999999997,-0.005589779999999999,-0.007719219999999999,1746801961195315
-9.547668,0.40066,-0.452088,-0.024355469999999997,-0.005456689999999999,-0.008783939999999999,1746801981169195
-9.55305,0.39767,-0.46345000000000003,-0.024754739999999997,-0.004391969999999999,-0.0093163,1746801002143035
-9.545874,0.412022,-0.476008,-0.024355469999999997,-0.0047912399999999996,-0.0079854,1746801022116955
-9.549462,0.409032,-0.462852,-0.02448856,-0.004924329999999999,-0.00891703,1746801042090715
-9.55305,0.410826,-0.461058,-0.024887829999999996,-0.004924329999999999,-0.00785231,1746801062064495
-9.559628,0.40664,-0.444314,-0.02462165,-0.00465815,-0.0079854,1746801082038415
-9.539894,0.412022,-0.440128,-0.02408929,-0.00505742,-0.00851776,1746801102012135
-9.548864,0.408434,-0.453882,-0.025287099999999996,-0.004924329999999999,-0.008384669999999999,1746801121985975
-9.546472,0.395876,-0.461656,-0.024222379999999998,-0.005456689999999999,-0.008384669999999999,1746801141959875
-9.542884,0.409032,-0.440128,-0.02369002,-0.005456689999999999,-0.00891703,1746801161933615
-9.542884,0.402454,-0.446108,-0.02369002,-0.004924329999999999,-0.007586129999999999,1746801181907595
-9.551256,0.40963,-0.452088,-0.023823109999999998,-0.004924329999999999,-0.00825158,1746801201881235
-9.549462,0.40365,-0.479596,-0.023823109999999998,-0.00572287,-0.008118489999999999,1746801221855435
-9.572784,0.410228,-0.477802,-0.023823109999999998,-0.00425888,-0.008118489999999999,1746801241829455
-9.551854,0.408434,-0.450892,-0.02369002,-0.00425888,-0.00851776,1746801261803115
-9.548864,0.412022,-0.486772,-0.024754739999999997,-0.004525059999999999,-0.008783939999999999,1746801281776995
-9.543482000000001,0.408434,-0.485576,-0.02462165,-0.00572287,-0.00851776,1746801301750875
-9.552452,0.406042,-0.458666,-0.023823109999999998,-0.00572287,-0.009183209999999999,1746801321724875
-9.557236,0.425776,-0.477204,-0.023556929999999997,-0.00505742,-0.009449389999999998,1746801341698695
-9.539296,0.39468000000000003,-0.449098,-0.024222379999999998,-0.0039927,-0.008384669999999999,1746801361672715
-9.549462,0.394082,-0.459862,-0.024887829999999996,-0.00505742,-0.008783939999999999,1746801381646655
-9.555442,0.396474,-0.470626,-0.025154009999999997,-0.00572287,-0.008384669999999999,1746801401620535
-9.541688,0.392288,-0.473018,-0.024222379999999998,-0.004924329999999999,-0.007719219999999999,1746801421594195
-9.534512,0.43355,-0.46345000000000003,-0.02448856,-0.004525059999999999,-0.008118489999999999,1746801441567875
-9.547668,0.410826,-0.474214,-0.024355469999999997,-0.004924329999999999,-0.00785231,1746801461541635
-9.537502,0.414414,-0.455078,-0.023823109999999998,-0.00465815,-0.008118489999999999,1746801481515495
-9.539296,0.39767,-0.467636,-0.02462165,-0.004525059999999999,-0.008118489999999999,1746801501489375
-9.537502,0.414414,-0.473018,-0.02448856,-0.00519051,-0.0079854,1746801521463075
-9.555442,0.402454,-0.49634,-0.023556929999999997,-0.00505742,-0.008384669999999999,1746801541436895
-9.564412,0.410228,-0.470028,-0.023823109999999998,-0.004924329999999999,-0.008118489999999999,1746801561410395
-9.545874,0.406042,-0.464646,-0.024222379999999998,-0.004391969999999999,-0.00998175,1746801581384235
-9.55604,0.395876,-0.489164,-0.02408929,-0.00465815,-0.00891703,1746801601358035
-9.560824,0.396474,-0.458666,-0.02408929,-0.004924329999999999,-0.008118489999999999,1746801621331955
-9.543482000000001,0.414414,-0.46943,-0.023556929999999997,-0.0047912399999999996,-0.008384669999999999,1746801641305895
-9.541688,0.416208,-0.468234,-0.024222379999999998,-0.0037265199999999997,-0.00785231,1746801661279795
-9.560824,0.416208,-0.431158,-0.02408929,-0.00505742,-0.00851776,1746801681253575
-9.554246000000001,0.404846,-0.452088,-0.024754739999999997,-0.00505742,-0.007453039999999999,1746801701227335
-9.548266,0.407238,-0.470028,-0.02448856,-0.00425888,-0.00825158,1746801721200895
-9.540492,0.402454,-0.44551,-0.02542019,-0.004391969999999999,-0.008384669999999999,1746801741174735
-9.548864,0.425776,-0.483782,-0.025154009999999997,-0.0047912399999999996,-0.00785231,1746801761148595
-9.550658,0.404846,-0.462254,-0.02408929,-0.00572287,-0.00865085,1746801781122315
-9.551854,0.396474,-0.45268600000000003,-0.024355469999999997,-0.00519051,-0.00825158,1746801801096235
-9.555442,0.40006200000000003,-0.486174,-0.025154009999999997,-0.00519051,-0.008384669999999999,1746801821070035
-9.5381,0.409032,-0.477204,-0.024355469999999997,-0.00572287,-0.00865085,1746801841043835
-9.5381,0.415012,-0.462254,-0.02502092,-0.004924329999999999,-0.0079854,1746801861017335
-9.549462,0.406042,-0.453882,-0.02448856,-0.0047912399999999996,-0.007586129999999999,1746801880991035
-9.535708,0.40066,-0.464646,-0.023956199999999997,-0.00572287,-0.00851776,1746801900964935
-9.542884,0.41262,-0.477204,-0.024754739999999997,-0.00572287,-0.007053769999999999,1746801920938775
-9.550658,0.39468000000000003,-0.483782,-0.023956199999999997,-0.004525059999999999,-0.008384669999999999,1746801940912655
-9.566804,0.395876,-0.456274,-0.024355469999999997,-0.0053235999999999995,-0.008783939999999999,1746801960886355
-9.551854,0.40963,-0.45747,-0.024887829999999996,-0.00519051,-0.00825158,1746801980860055
-9.554246000000001,0.416208,-0.473616,-0.023823109999999998,-0.004391969999999999,-0.008384669999999999,1746802000833755
-9.551256,0.39767,-0.47541,-0.023423839999999998,-0.00505742,-0.009183209999999999,1746801021807615
-9.549462,0.416208,-0.47541,-0.02408929,-0.005456689999999999,-0.00891703,1746801041781435
-9.554844000000001,0.40963,-0.474812,-0.02408929,-0.0053235999999999995,-0.00785231,1746801061755275
-9.543482000000001,0.404248,-0.465842,-0.024355469999999997,-0.00519051,-0.008118489999999999,1746801081729275
-9.546472,0.41561,-0.468832,-0.02408929,-0.006388319999999999,-0.00785231,1746801101703115
-9.560226,0.409032,-0.46644,-0.024222379999999998,-0.0053235999999999995,-0.00825158,1746801121676935
-9.546472,0.40066,-0.47541,-0.023823109999999998,-0.005589779999999999,-0.00718686,1746801141650755
-9.536904,0.41321800000000003,-0.459264,-0.024887829999999996,-0.00505742,-0.00825158,1746801161624555
-9.548266,0.412022,-0.456872,-0.02448856,-0.004924329999999999,-0.00785231,1746801181598415
-9.552452,0.399464,-0.45806800000000003,-0.02502092,-0.005456689999999999,-0.007719219999999999,1746801201572215
-9.550658,0.417404,-0.46644,-0.02462165,-0.00505742,-0.008783939999999999,1746801221545975
-9.54109,0.40783600000000003,-0.435344,-0.02462165,-0.00505742,-0.00865085,1746801241519875
-9.560824,0.411424,-0.473616,-0.023956199999999997,-0.004525059999999999,-0.008384669999999999,1746801261493695
-9.544678,0.39767,-0.465244,-0.023823109999999998,-0.0038596099999999994,-0.00825158,1746801281467515
-9.550658,0.40963,-0.47541,-0.02448856,-0.00505742,-0.00851776,1746801301441295
-9.563814,0.395278,-0.474812,-0.025154009999999997,-0.00519051,-0.006654499999999999,1746801321415155
-9.544678,0.41561,-0.450892,-0.02369002,-0.005589779999999999,-0.0073199499999999995,1746801341389015
-9.551256,0.408434,-0.453882,-0.02448856,-0.0047912399999999996,-0.0073199499999999995,1746801361362895
-9.546472,0.418002,-0.471822,-0.02462165,-0.004525059999999999,-0.008384669999999999,1746801381336675
-9.55305,0.404846,-0.464048,-0.023823109999999998,-0.0053235999999999995,-0.00785231,1746801401310535
-9.54707,0.397072,-0.470028,-0.024887829999999996,-0.005589779999999999,-0.00825158,1746801421284415
-9.551854,0.406042,-0.470028,-0.024355469999999997,-0.004391969999999999,-0.00825158,1746801441258215
-9.555442,0.406042,-0.467038,-0.024754739999999997,-0.00465815,-0.0079854,1746801461231975
-9.555442,0.398866,-0.462254,-0.025154009999999997,-0.0053235999999999995,-0.00785231,1746801481205895
-9.542286,0.40006200000000003,-0.461656,-0.023823109999999998,-0.00465815,-0.00785231,1746801501179775
-9.557236,0.407238,-0.462254,-0.02369002,-0.004924329999999999,-0.008384669999999999,1746801521153655
-9.545874,0.412022,-0.467038,-0.02369002,-0.00519051,-0.008118489999999999,1746801541127555
-9.542286,0.4186,-0.498134,-0.02408929,-0.0047912399999999996,-0.007586129999999999,1746801561101435
-9.54408,0.404248,-0.478998,-0.02408929,-0.0037265199999999997,-0.0073199499999999995,1746801581075235
-9.552452,0.409032,-0.462254,-0.023823109999999998,-0.00425888,-0.008118489999999999,1746801601048975
-9.544678,0.416208,-0.467038,-0.024222379999999998,-0.00465815,-0.009050119999999998,1746801621022895
-9.562618,0.404846,-0.471822,-0.02502092,-0.004525059999999999,-0.0073199499999999995,1746801640996755
-9.539894,0.415012,-0.459264,-0.023556929999999997,-0.004525059999999999,-0.008384669999999999,1746801660970635
-9.55903,0.40365,-0.452088,-0.023556929999999997,-0.00612214,-0.0079854,1746801680944515
-9.549462,0.40664,-0.468832,-0.023823109999999998,-0.005589779999999999,-0.00851776,1746801700918435
-9.565010000000001,0.40783600000000003,-0.446108,-0.024222379999999998,-0.00412579,-0.007053769999999999,1746801720892255
-9.565608000000001,0.412022,-0.470028,-0.02502092,-0.00505742,-0.008118489999999999,1746801740866175
-9.54707,0.404846,-0.456274,-0.02448856,-0.0047912399999999996,-0.007053769999999999,1746801760840075
-9.536904,0.414414,-0.455676,-0.024355469999999997,-0.0039927,-0.0073199499999999995,1746801780814035
-9.545276,0.40066,-0.471822,-0.024222379999999998,-0.004525059999999999,-0.008384669999999999,1746801800788015
-9.560226,0.414414,-0.471822,-0.02448856,-0.005456689999999999,-0.00825158,1746801820761935
-9.555442,0.4186,-0.476008,-0.02448856,-0.00465815,-0.00865085,1746801840735855
-9.55903,0.40365,-0.474214,-0.023823109999999998,-0.004525059999999999,-0.0073199499999999995,1746801860709715
-9.554246000000001,0.419198,-0.46046,-0.02462165,-0.004391969999999999,-0.00785231,1746801880683515
-9.547668,0.414414,-0.46046,-0.02408929,-0.0053235999999999995,-0.007453039999999999,1746801900657435
-9.545276,0.410826,-0.474214,-0.023423839999999998,-0.0053235999999999995,-0.00785231,1746801920631375
-9.550658,0.416208,-0.446108,-0.023157659999999997,-0.0053235999999999995,-0.00825158,1746801940605295
-9.556638,0.398268,-0.447902,-0.024222379999999998,-0.004924329999999999,-0.007453039999999999,1746801960579155
-9.545276,0.42099200000000003,-0.46644,-0.023823109999999998,-0.005589779999999999,-0.00825158,1746801980553015
-9.548266,0.418002,-0.465244,-0.02408929,-0.0053235999999999995,-0.00851776,1746802000526895
-9.557236,0.419198,-0.447902,-0.02502092,-0.005456689999999999,-0.008118489999999999,1746801021500875
-9.552452,0.414414,-0.4485,-0.02448856,-0.00572287,-0.0079854,1746801041474755
-9.535708,0.411424,-0.461058,-0.025287099999999996,-0.00505742,-0.008783939999999999,1746801061448655
-9.545874,0.42757,-0.453882,-0.023556929999999997,-0.004391969999999999,-0.008118489999999999,1746801081422575
-9.54707,0.4186,-0.465244,-0.024887829999999996,-0.0039927,-0.00785231,1746801101396495
-9.561422,0.40365,-0.48139,-0.02502092,-0.0047912399999999996,-0.007453039999999999,1746801121370375
-9.556638,0.4186,-0.470028,-0.024222379999999998,-0.004391969999999999,-0.00785231,1746801141344255
-9.532718000000001,0.410826,-0.456872,-0.023556929999999997,-0.004525059999999999,-0.00865085,1746801161318155
-9.562618,0.4186,-0.486772,-0.024355469999999997,-0.00465815,-0.008118489999999999,1746801181292015
-9.55305,0.403052,-0.444314,-0.024355469999999997,-0.00465815,-0.007719219999999999,1746801201265875
-9.550658,0.406042,-0.480194,-0.024222379999999998,-0.005456689999999999,-0.007453039999999999,1746801221239775
-9.559628,0.413816,-0.453882,-0.023157659999999997,-0.00465815,-0.00851776,1746801241213715
-9.54707,0.401258,-0.495742,-0.02462165,-0.00412579,-0.009183209999999999,1746801261187635
-9.548266,0.416208,-0.464646,-0.023956199999999997,-0.00425888,-0.008118489999999999,1746801281161515
-9.555442,0.408434,-0.441324,-0.023823109999999998,-0.00505742,-0.007053769999999999,1746801301135355
-9.535708,0.397072,-0.45448,-0.02408929,-0.0047912399999999996,-0.00785231,1746801321109255
-9.55903,0.41262,-0.456274,-0.02408929,-0.004924329999999999,-0.00851776,1746801341083155
-9.532718000000001,0.401856,-0.464646,-0.024355469999999997,-0.00572287,-0.007586129999999999,1746801361057055
-9.566206,0.40365,-0.464646,-0.02408929,-0.005589779999999999,-0.00678759,1746801381030935
-9.549462,0.40066,-0.467038,-0.024754739999999997,-0.0058559599999999995,-0.007719219999999999,1746801401004855
-9.55903,0.404248,-0.47660600000000003,-0.024355469999999997,-0.004525059999999999,-0.008118489999999999,1746801420978755
-9.55006,0.402454,-0.456274,-0.024222379999999998,-0.00505742,-0.008118489999999999,1746801440952595
-9.557834,0.422188,-0.46943,-0.023556929999999997,-0.00505742,-0.00785231,1746801460926435
-9.553648,0.401258,-0.45747,-0.02408929,-0.004924329999999999,-0.007586129999999999,1746801480900315
-9.545276,0.415012,-0.44551,-0.02408929,-0.004525059999999999,-0.00851776,1746801500874335
-9.549462,0.406042,-0.45149,-0.024222379999999998,-0.0053235999999999995,-0.0073199499999999995,1746801520848195
-9.552452,0.40783600000000003,-0.47242,-0.02462165,-0.00519051,-0.008783939999999999,1746801540821995
-9.544678,0.416806,-0.437138,-0.024754739999999997,-0.004391969999999999,-0.008384669999999999,1746801560795895
-9.551256,0.414414,-0.455676,-0.02448856,-0.00505742,-0.00851776,1746801580769775
-9.558432,0.40365,-0.45448,-0.02408929,-0.004391969999999999,-0.00865085,1746801600743675
-9.556638,0.411424,-0.46644,-0.024222379999999998,-0.0058559599999999995,-0.008118489999999999,1746801620717615
-9.5381,0.41262,-0.462852,-0.024222379999999998,-0.005456689999999999,-0.00825158,1746801640691495
-9.555442,0.409032,-0.425178,-0.025553279999999998,-0.006388319999999999,-0.00891703,1746801660665315
-9.558432,0.41262,-0.450294,-0.024222379999999998,-0.0053235999999999995,-0.009050119999999998,1746801680639195
-9.545276,0.410826,-0.45149,-0.02448856,-0.005589779999999999,-0.008118489999999999,1746801700613115
-9.54707,0.401258,-0.455676,-0.02462165,-0.005456689999999999,-0.007719219999999999,1746801720587055
-9.553648,0.40963,-0.467636,-0.02462165,-0.004391969999999999,-0.0079854,1746801740560915
-9.558432,0.40365,-0.47660600000000003,-0.025154009999999997,-0.0039927,-0.0079854,1746801760534735
-9.551854,0.411424,-0.465842,-0.02502092,-0.0047912399999999996,-0.00865085,1746801780508635
-9.54707,0.404248,-0.446108,-0.02502092,-0.0058559599999999995,-0.007453039999999999,1746801800482555
-9.548266,0.418002,-0.480194,-0.024355469999999997,-0.005989049999999999,-0.007453039999999999,1746801820456415
-9.545276,0.410228,-0.455676,-0.023956199999999997,-0.006521409999999999,-0.0079854,1746801840430275
-9.548266,0.410228,-0.461058,-0.023956199999999997,-0.005589779999999999,-0.00785231,1746801860404155
-9.544678,0.40066,-0.493948,-0.024222379999999998,-0.005989049999999999,-0.00785231,1746801880378055
-9.571588,0.405444,-0.470626,-0.023556929999999997,-0.0047912399999999996,-0.0073199499999999995,1746801900351895
-9.542884,0.410228,-0.462852,-0.024754739999999997,-0.004525059999999999,-0.008783939999999999,1746801920325775
-9.572186,0.398866,-0.46046,-0.025154009999999997,-0.004924329999999999,-0.007586129999999999,1746801940299675
-9.554246000000001,0.416208,-0.455676,-0.024222379999999998,-0.00465815,-0.0079854,1746801960273695
-9.547668,0.404846,-0.446706,-0.02249221,-0.0047912399999999996,-0.00785231,1746801980247575
-9.539894,0.403052,-0.45747,-0.023556929999999997,-0.0053235999999999995,-0.007719219999999999,1746802000221415
-9.554844000000001,0.406042,-0.449696,-0.02369002,-0.00519051,-0.007586129999999999,1746801021195295
-9.550658,0.40963,-0.47660600000000003,-0.025154009999999997,-0.00519051,-0.0079854,1746801041169135
-9.563814,0.40006200000000003,-0.465244,-0.025154009999999997,-0.0053235999999999995,-0.00825158,1746801061142995
-9.54707,0.40664,-0.47242,-0.02408929,-0.00519051,-0.008118489999999999,1746801081116915
-9.545874,0.401258,-0.473018,-0.02448856,-0.004525059999999999,-0.007719219999999999,1746801101090835
-9.549462,0.414414,-0.456274,-0.024355469999999997,-0.0053235999999999995,-0.00785231,1746801121064695
-9.55604,0.401258,-0.447304,-0.02462165,-0.0053235999999999995,-0.00785231,1746801141038515
-9.567402,0.416806,-0.450892,-0.023956199999999997,-0.0047912399999999996,-0.007053769999999999,1746801161012455
-9.548266,0.41262,-0.461656,-0.023823109999999998,-0.0053235999999999995,-0.00678759,1746801180986475
-9.553648,0.406042,-0.486772,-0.02408929,-0.005456689999999999,-0.0079854,1746801200960315
-9.540492,0.410826,-0.465244,-0.02408929,-0.00505742,-0.008783939999999999,1746801220934155
-9.551256,0.398268,-0.470626,-0.023556929999999997,-0.00425888,-0.008118489999999999,1746801240908015
-9.545874,0.402454,-0.47242,-0.02329075,-0.005589779999999999,-0.00851776,1746801260881955
-9.539894,0.411424,-0.459862,-0.023423839999999998,-0.005456689999999999,-0.007453039999999999,1746801280855855
-9.551854,0.401258,-0.477204,-0.023423839999999998,-0.0047912399999999996,-0.006920679999999999,1746801300829775
-9.55903,0.416208,-0.477802,-0.02329075,-0.00425888,-0.007453039999999999,1746801320803675
-9.546472,0.398268,-0.470028,-0.024222379999999998,-0.005456689999999999,-0.008783939999999999,1746801340777555
-9.547668,0.398866,-0.483184,-0.02462165,-0.00519051,-0.00851776,1746801360751415
-9.572186,0.405444,-0.468832,-0.023956199999999997,-0.00465815,-0.00825158,1746801380725375
-9.555442,0.4186,-0.47660600000000003,-0.023823109999999998,-0.00505742,-0.007586129999999999,1746801400699275
-9.55305,0.407238,-0.465244,-0.02408929,-0.005589779999999999,-0.009183209999999999,1746801420673155
-9.557236,0.398268,-0.4784,-0.02369002,-0.0053235999999999995,-0.007453039999999999,1746801440646975
-9.557834,0.393484,-0.459862,-0.02408929,-0.005589779999999999,-0.007053769999999999,1746801460620855
-9.560226,0.383318,-0.485576,-0.023423839999999998,-0.00505742,-0.00785231,1746801480594815
-9.557236,0.399464,-0.45747,-0.024754739999999997,-0.0053235999999999995,-0.00851776,1746801500568755
-9.54707,0.40066,-0.47660600000000003,-0.024222379999999998,-0.00465815,-0.007453039999999999,1746801520542635
-9.567402,0.40006200000000003,-0.461656,-0.02369002,-0.00519051,-0.00785231,1746801540516455
-9.555442,0.394082,-0.46345000000000003,-0.02408929,-0.00425888,-0.007586129999999999,1746801560490395
-9.561422,0.415012,-0.477204,-0.02448856,-0.00465815,-0.00785231,1746801580464375
-9.548266,0.393484,-0.441324,-0.02448856,-0.00465815,-0.008384669999999999,1746801600438175
-9.549462,0.41561,-0.470626,-0.023956199999999997,-0.004924329999999999,-0.007719219999999999,1746801620412075
-9.548864,0.398268,-0.468234,-0.023556929999999997,-0.004924329999999999,-0.00851776,1746801640385975
-9.563814,0.416806,-0.47660600000000003,-0.02408929,-0.00505742,-0.00825158,1746801660359875
-9.560226,0.422188,-0.462852,-0.024887829999999996,-0.00465815,-0.00891703,1746801680333855
-9.549462,0.412022,-0.461058,-0.02408929,-0.004924329999999999,-0.008384669999999999,1746801700307755
-9.55903,0.414414,-0.459264,-0.025154009999999997,-0.0047912399999999996,-0.0073199499999999995,1746801720281615
-9.5381,0.42458,-0.467636,-0.023956199999999997,-0.005589779999999999,-0.007719219999999999,1746801740255535
-9.547668,0.402454,-0.452088,-0.024355469999999997,-0.005456689999999999,-0.007719219999999999,1746801760229475
-9.537502,0.409032,-0.49514400000000003,-0.023956199999999997,-0.005589779999999999,-0.00851776,1746801780203415
-9.554246000000001,0.404846,-0.480792,-0.02502092,-0.005589779999999999,-0.007719219999999999,1746801800177275
-9.55604,0.41321800000000003,-0.47541,-0.023956199999999997,-0.00519051,-0.0073199499999999995,1746801820151095
-9.556638,0.410826,-0.449696,-0.02408929,-0.004924329999999999,-0.006920679999999999,1746801840125015
-9.545874,0.413816,-0.45747,-0.024754739999999997,-0.00505742,-0.007719219999999999,1746801860099035
-9.551854,0.418002,-0.480792,-0.025287099999999996,-0.0053235999999999995,-0.00851776,1746801880072995
-9.543482000000001,0.41321800000000003,-0.455078,-0.02408929,-0.00465815,-0.00851776,1746801900046855
-9.548864,0.414414,-0.45268600000000003,-0.024887829999999996,-0.004924329999999999,-0.007719219999999999,1746801920020755
-9.553648,0.412022,-0.46046,-0.02448856,-0.0047912399999999996,-0.00825158,1746801939994595
-9.545276,0.405444,-0.45149,-0.02462165,-0.00465815,-0.00865085,1746801959968695
-9.547668,0.410826,-0.476008,-0.024887829999999996,-0.004525059999999999,-0.008384669999999999,1746801979942575
-9.55604,0.417404,-0.455078,-0.02369002,-0.004924329999999999,-0.00718686,1746801999916455
-9.56202,0.401856,-0.46046,-0.02289148,-0.0037265199999999997,-0.008118489999999999,1746801020890475
-9.539894,0.409032,-0.477204,-0.023823109999999998,-0.0047912399999999996,-0.008783939999999999,1746801040864435
-9.562618,0.406042,-0.47660600000000003,-0.024355469999999997,-0.00505742,-0.00785231,1746801060838355
-9.552452,0.413816,-0.4784,-0.02462165,-0.004525059999999999,-0.008783939999999999,1746801080812255
-9.557834,0.410228,-0.48976200000000003,-0.02448856,-0.004924329999999999,-0.009183209999999999,1746801100786095
-9.550658,0.410826,-0.47242,-0.023556929999999997,-0.00519051,-0.00825158,1746801120759915
-9.55006,0.407238,-0.477802,-0.02462165,-0.00519051,-0.008783939999999999,1746801140733795
-9.551256,0.413816,-0.467636,-0.02542019,-0.00425888,-0.00865085,1746801160707675
-9.55006,0.412022,-0.47660600000000003,-0.025287099999999996,-0.00465815,-0.00851776,1746801180681615
-9.562618,0.4186,-0.482586,-0.02462165,-0.00519051,-0.007586129999999999,1746801200655435
-9.54408,0.404248,-0.47660600000000003,-0.024222379999999998,-0.005589779999999999,-0.00865085,1746801220629175
-9.548266,0.398866,-0.446706,-0.02369002,-0.0047912399999999996,-0.00865085,1746801240603075
-9.551256,0.415012,-0.480194,-0.024887829999999996,-0.00425888,-0.008118489999999999,1746801260576915
-9.564412,0.410228,-0.467038,-0.02462165,-0.0047912399999999996,-0.00825158,1746801280550775
-9.551854,0.404846,-0.471822,-0.02448856,-0.005456689999999999,-0.0093163,1746801300524615
-9.547668,0.40664,-0.47122400000000003,-0.024222379999999998,-0.004924329999999999,-0.00825158,1746801320498375
-9.556638,0.403052,-0.473018,-0.02448856,-0.00465815,-0.008118489999999999,1746801340472255
-9.535708,0.40783600000000003,-0.45448,-0.024754739999999997,-0.005456689999999999,-0.008384669999999999,1746801360446095
-9.569196,0.41561,-0.464646,-0.02448856,-0.00425888,-0.008118489999999999,1746801380419975
-9.551256,0.405444,-0.468234,-0.024355469999999997,-0.0053235999999999995,-0.00785231,1746801400393875
-9.545276,0.40006200000000003,-0.492752,-0.024222379999999998,-0.0058559599999999995,-0.00825158,1746801420367635
-9.555442,0.417404,-0.462254,-0.024222379999999998,-0.0038596099999999994,-0.0093163,1746801440341515
-9.5381,0.407238,-0.461058,-0.02448856,-0.0038596099999999994,-0.00825158,1746801460315395
-9.545874,0.413816,-0.453882,-0.02462165,-0.00519051,-0.008783939999999999,1746801480289215
-9.546472,0.419198,-0.470626,-0.024355469999999997,-0.0053235999999999995,-0.009050119999999998,1746801500262955
-9.543482000000001,0.405444,-0.47242,-0.02502092,-0.0053235999999999995,-0.008384669999999999,1746801520236975
-9.55006,0.422188,-0.470028,-0.023956199999999997,-0.00505742,-0.008783939999999999,1746801540210815
-9.548266,0.42159,-0.467038,-0.02462165,-0.00505742,-0.00891703,1746801560184655
-9.55305,0.409032,-0.467636,-0.02369002,-0.005589779999999999,-0.00851776,1746801580158535
-9.533914,0.406042,-0.452088,-0.024355469999999997,-0.004525059999999999,-0.00891703,1746801600132195
-9.533914,0.40783600000000003,-0.465244,-0.02448856,-0.00505742,-0.0073199499999999995,1746801620106035
-9.542286,0.410228,-0.468234,-0.023823109999999998,-0.005989049999999999,-0.008118489999999999,1746801640079935
-9.554844000000001,0.398268,-0.480194,-0.02448856,-0.00519051,-0.0073199499999999995,1746801660053675
-9.546472,0.393484,-0.464646,-0.024754739999999997,-0.00412579,-0.008118489999999999,1746801680027535
-9.561422,0.42458,-0.474812,-0.024754739999999997,-0.004924329999999999,-0.00891703,1746801700001435
-9.55604,0.415012,-0.444314,-0.023956199999999997,-0.00612214,-0.0093163,1746801719975355
-9.567402,0.404846,-0.464048,-0.02408929,-0.005989049999999999,-0.00865085,1746801739949315
-9.54408,0.42757,-0.483782,-0.02448856,-0.005989049999999999,-0.009183209999999999,1746801759923215
-9.545276,0.408434,-0.480792,-0.02502092,-0.00519051,-0.008384669999999999,1746801779897155
-9.544678,0.418002,-0.468234,-0.024754739999999997,-0.00572287,-0.007453039999999999,1746801799871055
-9.53212,0.431158,-0.474214,-0.023956199999999997,-0.00465815,-0.006521409999999999,1746801819844975
-9.539296,0.406042,-0.45448,-0.023956199999999997,-0.005589779999999999,-0.0073199499999999995,1746801839818855
-9.546472,0.416208,-0.46644,-0.024222379999999998,-0.004924329999999999,-0.0079854,1746801859792895
-9.553648,0.392288,-0.459264,-0.023556929999999997,-0.0053235999999999995,-0.00891703,1746801879766755
-9.536904,0.411424,-0.49036,-0.02448856,-0.005989049999999999,-0.0079854,1746801899740635
-9.56202,0.403052,-0.437736,-0.02329075,-0.0047912399999999996,-0.00891703,1746801919714495
-9.55006,0.410228,-0.477204,-0.024222379999999998,-0.00505742,-0.007719219999999999,1746801939688475
-9.558432,0.404846,-0.450892,-0.02448856,-0.00505742,-0.00825158,1746801959662455
-9.558432,0.40783600000000003,-0.479596,-0.02462165,-0.0053235999999999995,-0.009050119999999998,1746801979636235
-9.54109,0.404846,-0.473616,-0.02448856,-0.00612214,-0.00625523,1746801999610075
-9.555442,0.416208,-0.473616,-0.023823109999999998,-0.00505742,-0.007453039999999999,1746801020584015
-9.55006,0.401856,-0.462852,-0.025287099999999996,-0.0047912399999999996,-0.00865085,1746801040557895
-9.54707,0.411424,-0.474214,-0.02462165,-0.00425888,-0.008118489999999999,1746801060531815
-9.545874,0.414414,-0.486772,-0.024222379999999998,-0.00519051,-0.00865085,1746801080505635
-9.536904,0.406042,-0.464646,-0.02408929,-0.0047912399999999996,-0.007719219999999999,1746801100479455
-9.577568,0.41321800000000003,-0.44491200000000003,-0.024222379999999998,-0.004924329999999999,-0.007719219999999999,1746801120453395
-9.559628,0.40783600000000003,-0.456872,-0.025553279999999998,-0.004525059999999999,-0.007719219999999999,1746801140427395
-9.551256,0.401856,-0.467038,-0.02408929,-0.004924329999999999,-0.00785231,1746801160401115
-9.542884,0.398268,-0.470028,-0.02408929,-0.005456689999999999,-0.008783939999999999,1746801180374955
-9.547668,0.418002,-0.46345000000000003,-0.024355469999999997,-0.005989049999999999,-0.00825158,1746801200348775
-9.557236,0.409032,-0.441324,-0.023956199999999997,-0.00572287,-0.008384669999999999,1746801220322775
-9.549462,0.423384,-0.468234,-0.024887829999999996,-0.00412579,-0.00851776,1746801240296715
-9.545874,0.401258,-0.471822,-0.02462165,-0.004924329999999999,-0.00718686,1746801260270695
-9.55006,0.41321800000000003,-0.45268600000000003,-0.024754739999999997,-0.00519051,-0.008118489999999999,1746801280244555
-9.55604,0.40783600000000003,-0.456274,-0.02369002,-0.00465815,-0.00891703,1746801300218375
-9.549462,0.401856,-0.459862,-0.02408929,-0.004924329999999999,-0.008783939999999999,1746801320192175
-9.538698,0.406042,-0.46644,-0.02408929,-0.004391969999999999,-0.00718686,1746801340165935
-9.54707,0.409032,-0.482586,-0.024222379999999998,-0.004924329999999999,-0.00851776,1746801360139875
-9.552452,0.417404,-0.470626,-0.023956199999999997,-0.0047912399999999996,-0.00891703,1746801380113775
-9.536904,0.401856,-0.465244,-0.024222379999999998,-0.00425888,-0.00785231,1746801400087635
-9.557236,0.40006200000000003,-0.480792,-0.024355469999999997,-0.00425888,-0.008118489999999999,1746801420061455
-9.557236,0.428766,-0.474214,-0.02369002,-0.005589779999999999,-0.008384669999999999,1746801440035255
-9.557834,0.410826,-0.461656,-0.024222379999999998,-0.00519051,-0.008118489999999999,1746801460009175
-9.549462,0.410228,-0.48976200000000003,-0.023423839999999998,-0.004924329999999999,-0.007453039999999999,1746801479983135
-9.554246000000001,0.40066,-0.45149,-0.023556929999999997,-0.00572287,-0.00865085,1746801499956915
-9.551854,0.409032,-0.477204,-0.023823109999999998,-0.005456689999999999,-0.00851776,1746801519930715
-9.552452,0.403052,-0.459862,-0.024754739999999997,-0.0053235999999999995,-0.008783939999999999,1746801539904675
-9.539894,0.412022,-0.46943,-0.02462165,-0.00519051,-0.00851776,1746801559878635
-9.556638,0.40664,-0.471822,-0.024754739999999997,-0.00465815,-0.009050119999999998,1746801579852415
-9.55604,0.3887,-0.4784,-0.024887829999999996,-0.004391969999999999,-0.008118489999999999,1746801599826235
-9.552452,0.422188,-0.467636,-0.024887829999999996,-0.00465815,-0.008783939999999999,1746801619800175
-9.555442,0.412022,-0.467636,-0.024887829999999996,-0.004924329999999999,-0.00851776,1746801639774155
-9.554844000000001,0.398268,-0.462852,-0.02542019,-0.004924329999999999,-0.007453039999999999,1746801659747955
-9.549462,0.404248,-0.456274,-0.02502092,-0.00505742,-0.00825158,1746801679721875
-9.552452,0.40066,-0.480194,-0.024887829999999996,-0.00519051,-0.00851776,1746801699695795
-9.566804,0.40365,-0.467038,-0.02448856,-0.004924329999999999,-0.00825158,1746801719669695
-9.54408,0.416806,-0.449098,-0.024887829999999996,-0.005456689999999999,-0.00865085,1746801739643555
-9.554844000000001,0.39767,-0.477204,-0.024222379999999998,-0.00572287,-0.008384669999999999,1746801759617295
-9.548266,0.40365,-0.486174,-0.02369002,-0.005456689999999999,-0.007453039999999999,1746801779591175
-9.5381,0.411424,-0.477204,-0.02462165,-0.0058559599999999995,-0.00825158,1746801799565035
-9.55006,0.41561,-0.468832,-0.02369002,-0.005589779999999999,-0.008783939999999999,1746801819538875
-9.545276,0.416208,-0.459862,-0.02448856,-0.005456689999999999,-0.007719219999999999,1746801839512775
-9.554844000000001,0.414414,-0.462254,-0.02502092,-0.004924329999999999,-0.00678759,1746801859486595
-9.550658,0.40066,-0.456872,-0.024754739999999997,-0.0053235999999999995,-0.008783939999999999,1746801879460455
-9.55305,0.419198,-0.461058,-0.024887829999999996,-0.0053235999999999995,-0.007453039999999999,1746801899434255
-9.548266,0.410228,-0.45268600000000003,-0.024754739999999997,-0.00465815,-0.007586129999999999,1746801919408075
-9.558432,0.398268,-0.443118,-0.02462165,-0.005456689999999999,-0.008118489999999999,1746801939381995
-9.552452,0.4186,-0.459264,-0.02502092,-0.0047912399999999996,-0.007719219999999999,1746801959355875
-9.548266,0.396474,-0.45149,-0.02408929,-0.00465815,-0.00851776,1746801979329855
-9.559628,0.407238,-0.48139,-0.024222379999999998,-0.00519051,-0.009183209999999999,1746801999303655
-9.55305,0.414414,-0.473616,-0.024355469999999997,-0.005456689999999999,-0.008384669999999999,1746801020277535
-9.543482000000001,0.415012,-0.46046,-0.02408929,-0.00505742,-0.0079854,1746801040251495
-9.557834,0.416208,-0.455676,-0.023823109999999998,-0.0053235999999999995,-0.00851776,1746801060225295
-9.548266,0.417404,-0.470626,-0.02448856,-0.00572287,-0.007453039999999999,1746801080199155
-9.547668,0.41321800000000003,-0.452088,-0.024754739999999997,-0.0053235999999999995,-0.00825158,1746801100172955
-9.566804,0.398268,-0.459862,-0.02448856,-0.00465815,-0.007719219999999999,1746801120146855
-9.54707,0.413816,-0.459264,-0.024754739999999997,-0.0047912399999999996,-0.00718686,1746801140120775
-9.54408,0.42099200000000003,-0.46345000000000003,-0.024355469999999997,-0.00412579,-0.007586129999999999,1746801160094695
-9.540492,0.403052,-0.459264,-0.024222379999999998,-0.00519051,-0.00891703,1746801180068515
-9.552452,0.404846,-0.450294,-0.02448856,-0.0053235999999999995,-0.00891703,1746801200042295
-9.564412,0.40963,-0.473616,-0.02462165,-0.00519051,-0.007586129999999999,1746801220016335
-9.548864,0.408434,-0.479596,-0.02462165,-0.0053235999999999995,-0.007719219999999999,1746801239990275
-9.536904,0.422786,-0.48139,-0.02462165,-0.005456689999999999,-0.009183209999999999,1746801259964175
-9.548266,0.40783600000000003,-0.479596,-0.02448856,-0.005589779999999999,-0.007453039999999999,1746801279938035
-9.54408,0.40365,-0.47660600000000003,-0.02462165,-0.0053235999999999995,-0.008118489999999999,1746801299911955
-9.54408,0.40066,-0.458666,-0.02408929,-0.0047912399999999996,-0.008384669999999999,1746801319885795
-9.54408,0.411424,-0.465842,-0.02408929,-0.0053235999999999995,-0.0079854,1746801339859575
-9.55903,0.425178,-0.48976200000000003,-0.02448856,-0.005589779999999999,-0.00785231,1746801359833575
-9.554246000000001,0.411424,-0.44252,-0.024754739999999997,-0.004525059999999999,-0.007586129999999999,1746801379807555
-9.549462,0.4186,-0.464646,-0.02369002,-0.004525059999999999,-0.00785231,1746801399781595
-9.558432,0.426972,-0.470028,-0.02448856,-0.00412579,-0.00825158,1746801419755415
-9.543482000000001,0.406042,-0.467636,-0.024754739999999997,-0.004525059999999999,-0.009050119999999998,1746801439729295
-9.54707,0.406042,-0.462254,-0.023423839999999998,-0.00519051,-0.008384669999999999,1746801459703475
-9.55006,0.411424,-0.455676,-0.023823109999999998,-0.004525059999999999,-0.0093163,1746801479677575
-9.548266,0.418002,-0.45806800000000003,-0.02408929,-0.00519051,-0.007719219999999999,1746801499651495
-9.554844000000001,0.411424,-0.435344,-0.024222379999999998,-0.005589779999999999,-0.0079854,1746801519625455
-9.554246000000001,0.413816,-0.468234,-0.02462165,-0.005456689999999999,-0.00825158,1746801539599415
-9.56202,0.383916,-0.48438000000000003,-0.024222379999999998,-0.0053235999999999995,-0.007053769999999999,1746801559573335
-9.55604,0.401258,-0.47122400000000003,-0.024222379999999998,-0.00425888,-0.007586129999999999,1746801579547235
-9.562618,0.412022,-0.46046,-0.023956199999999997,-0.0047912399999999996,-0.007719219999999999,1746801599521235
-9.551256,0.413816,-0.45448,-0.02542019,-0.004525059999999999,-0.007053769999999999,1746801619495135
-9.542286,0.40963,-0.465842,-0.024754739999999997,-0.00505742,-0.006654499999999999,1746801639469115
-9.547668,0.401856,-0.455676,-0.023956199999999997,-0.0053235999999999995,-0.008783939999999999,1746801659442975
-9.561422,0.398866,-0.461058,-0.02448856,-0.00625523,-0.008783939999999999,1746801679416755
-9.555442,0.407238,-0.487968,-0.024887829999999996,-0.00505742,-0.00785231,1746801699390775
-9.542286,0.399464,-0.46943,-0.02448856,-0.0047912399999999996,-0.00785231,1746801719364835
-9.55305,0.405444,-0.478998,-0.024754739999999997,-0.0053235999999999995,-0.009050119999999998,1746801739338855
-9.540492,0.413816,-0.464048,-0.024754739999999997,-0.00425888,-0.00825158,1746801759312675
-9.550658,0.397072,-0.474214,-0.023823109999999998,-0.004391969999999999,-0.008118489999999999,1746801779286475
-9.550658,0.408434,-0.48139,-0.023823109999999998,-0.00519051,-0.008783939999999999,1746801799260355
-9.54707,0.413816,-0.468234,-0.02408929,-0.00572287,-0.0079854,1746801819234355
-9.54408,0.405444,-0.464048,-0.02502092,-0.00519051,-0.007719219999999999,1746801839208515
-9.549462,0.410826,-0.44252,-0.025287099999999996,-0.0058559599999999995,-0.007053769999999999,1746801859182355
-9.537502,0.414414,-0.45448,-0.024355469999999997,-0.004924329999999999,-0.00825158,1746801879156215
-9.548864,0.410826,-0.4784,-0.02448856,-0.00519051,-0.00825158,1746801899130135
-9.538698,0.412022,-0.464646,-0.024887829999999996,-0.00572287,-0.007719219999999999,1746801919103915
-9.547668,0.415012,-0.464646,-0.024355469999999997,-0.0053235999999999995,-0.008783939999999999,1746801939077675
-9.542884,0.410826,-0.45747,-0.024222379999999998,-0.0053235999999999995,-0.009050119999999998,1746801959051615
-9.555442,0.413816,-0.470626,-0.02369002,-0.005456689999999999,-0.008118489999999999,1746801979025615
-9.551256,0.419796,-0.46943,-0.023823109999999998,-0.00519051,-0.007453039999999999,1746801998999395
-9.554844000000001,0.404846,-0.481988,-0.024355469999999997,-0.00519051,-0.0079854,1746801019973275
-9.537502,0.398866,-0.467038,-0.024222379999999998,-0.00412579,-0.007586129999999999,1746801039947075
-9.53511,0.411424,-0.453882,-0.02448856,-0.0047912399999999996,-0.008384669999999999,1746801059920975
-9.55305,0.42099200000000003,-0.453284,-0.024222379999999998,-0.0053235999999999995,-0.00851776,1746801079894975
-9.552452,0.40963,-0.483782,-0.023956199999999997,-0.00505742,-0.0079854,1746801099868695
-9.54109,0.39767,-0.464048,-0.02462165,-0.00519051,-0.008783939999999999,1746801119842515
-9.557236,0.405444,-0.46943,-0.02462165,-0.004924329999999999,-0.00851776,1746801139816435
-9.556638,0.408434,-0.456274,-0.023956199999999997,-0.00412579,-0.007586129999999999,1746801159790295
-9.563814,0.415012,-0.470626,-0.024222379999999998,-0.0047912399999999996,-0.007453039999999999,1746801179764135
-9.548864,0.417404,-0.471822,-0.02502092,-0.00465815,-0.008118489999999999,1746801199738055
-9.537502,0.401258,-0.477204,-0.024355469999999997,-0.00519051,-0.008118489999999999,1746801219711895
-9.55006,0.405444,-0.465244,-0.02448856,-0.004924329999999999,-0.007586129999999999,1746801239685815
-9.541688,0.395876,-0.474812,-0.02408929,-0.004924329999999999,-0.00785231,1746801259659715
-9.555442,0.40783600000000003,-0.46644,-0.02462165,-0.00505742,-0.00891703,1746801279633455
-9.548266,0.41321800000000003,-0.474214,-0.024754739999999997,-0.00572287,-0.007719219999999999,1746801299607255
-9.544678,0.416806,-0.43654,-0.024887829999999996,-0.00519051,-0.009050119999999998,1746801319581275
-9.553648,0.39767,-0.48438000000000003,-0.02502092,-0.004391969999999999,-0.009050119999999998,1746801339555135
-9.55305,0.40006200000000003,-0.456274,-0.024355469999999997,-0.00505742,-0.0093163,1746801359528975
-9.54109,0.397072,-0.437138,-0.024887829999999996,-0.005589779999999999,-0.008384669999999999,1746801379502735
-9.54707,0.39767,-0.459862,-0.024887829999999996,-0.0053235999999999995,-0.007586129999999999,1746801399476735
-9.55006,0.41262,-0.46345000000000003,-0.024355469999999997,-0.004525059999999999,-0.00825158,1746801419450735
-9.545874,0.403052,-0.453284,-0.025287099999999996,-0.00519051,-0.007719219999999999,1746801439424615
-9.55006,0.402454,-0.467636,-0.024355469999999997,-0.00612214,-0.008118489999999999,1746801459398455
-9.550658,0.40664,-0.45806800000000003,-0.024355469999999997,-0.004924329999999999,-0.007719219999999999,1746801479372175
-9.544678,0.412022,-0.467038,-0.024222379999999998,-0.004924329999999999,-0.0079854,1746801499346135
-9.547668,0.41561,-0.461058,-0.02408929,-0.0058559599999999995,-0.0079854,1746801519320095
-9.546472,0.410228,-0.473616,-0.02581946,-0.0047912399999999996,-0.008384669999999999,1746801539294015
-9.547668,0.402454,-0.48438000000000003,-0.024754739999999997,-0.0047912399999999996,-0.00891703,1746801559268055
-9.55305,0.410826,-0.473018,-0.02448856,-0.00505742,-0.00851776,1746801579241955
-9.551256,0.395278,-0.459862,-0.023556929999999997,-0.004924329999999999,-0.0079854,1746801599215895
-9.54408,0.403052,-0.462254,-0.02329075,-0.00519051,-0.0079854,1746801619189815
-9.54707,0.392288,-0.46345000000000003,-0.024222379999999998,-0.00572287,-0.00825158,1746801639163795
-9.555442,0.408434,-0.46046,-0.02542019,-0.005456689999999999,-0.0079854,1746801659137635
-9.528532,0.415012,-0.440128,-0.024355469999999997,-0.00465815,-0.008384669999999999,1746801679111495
-9.534512,0.412022,-0.47660600000000003,-0.02462165,-0.00572287,-0.009183209999999999,1746801699085515
-9.554246000000001,0.409032,-0.47122400000000003,-0.023956199999999997,-0.005989049999999999,-0.008118489999999999,1746801719059295
-9.550658,0.418002,-0.45149,-0.023823109999999998,-0.00425888,-0.0073199499999999995,1746801739033195
-9.5381,0.407238,-0.447902,-0.024355469999999997,-0.005589779999999999,-0.007053769999999999,1746801759007075
-9.556638,0.386906,-0.462852,-0.023423839999999998,-0.0053235999999999995,-0.008783939999999999,1746801778980935
-9.545276,0.410228,-0.47122400000000003,-0.024222379999999998,-0.00519051,-0.00825158,1746801798954775
-9.547668,0.404248,-0.49933,-0.02408929,-0.004924329999999999,-0.0079854,1746801818928575
-9.533914,0.409032,-0.482586,-0.023556929999999997,-0.00465815,-0.00785231,1746801838902575
-9.54408,0.409032,-0.46943,-0.02369002,-0.005456689999999999,-0.008118489999999999,1746801858876655
-9.558432,0.416208,-0.443716,-0.024222379999999998,-0.005456689999999999,-0.0073199499999999995,1746801878850595
-9.554246000000001,0.415012,-0.459264,-0.023556929999999997,-0.0058559599999999995,-0.00785231,1746801898824555
-9.542286,0.402454,-0.452088,-0.02369002,-0.00572287,-0.007719219999999999,1746801918798615
-9.55305,0.397072,-0.47660600000000003,-0.024887829999999996,-0.004391969999999999,-0.007053769999999999,1746801938772655
-9.549462,0.40365,-0.452088,-0.02462165,-0.004391969999999999,-0.00865085,1746801958746555
-9.533914,0.410826,-0.468832,-0.024222379999999998,-0.00519051,-0.00718686,1746801978720395
-9.551854,0.41321800000000003,-0.498134,-0.024222379999999998,-0.0058559599999999995,-0.00825158,1746801998694335
-9.551256,0.41262,-0.462254,-0.025154009999999997,-0.005456689999999999,-0.007586129999999999,1746801019668295
-9.542286,0.40963,-0.467038,-0.02448856,-0.004924329999999999,-0.00825158,1746801039642235
-9.559628,0.409032,-0.46046,-0.024887829999999996,-0.0053235999999999995,-0.007719219999999999,1746801059616095
-9.538698,0.407238,-0.464048,-0.023823109999999998,-0.00519051,-0.007719219999999999,1746801079590075
-9.541688,0.398866,-0.465244,-0.023956199999999997,-0.00519051,-0.00718686,1746801099563995
-9.55006,0.405444,-0.453882,-0.024754739999999997,-0.00465815,-0.009050119999999998,1746801119537915
-9.550658,0.403052,-0.468234,-0.02462165,-0.00425888,-0.00825158,1746801139511755
-9.547668,0.410826,-0.461656,-0.024887829999999996,-0.0053235999999999995,-0.01011484,1746801159485515
-9.542884,0.41561,-0.468832,-0.024355469999999997,-0.005456689999999999,-0.009050119999999998,1746801179459375
-9.55604,0.39468000000000003,-0.465244,-0.025686369999999997,-0.005456689999999999,-0.009183209999999999,1746801199433295
-9.543482000000001,0.404248,-0.44252,-0.024222379999999998,-0.006388319999999999,-0.00718686,1746801219407375
-9.548864,0.406042,-0.477802,-0.02462165,-0.004924329999999999,-0.006920679999999999,1746801239381255
-9.555442,0.408434,-0.46345000000000003,-0.024887829999999996,-0.005989049999999999,-0.007453039999999999,1746801259355075
-9.548266,0.395278,-0.464048,-0.023956199999999997,-0.004924329999999999,-0.008384669999999999,1746801279328995
-9.54109,0.416806,-0.455676,-0.02448856,-0.00519051,-0.0079854,1746801299302975
-9.56202,0.40664,-0.462254,-0.02448856,-0.0047912399999999996,-0.00825158,1746801319277055
-9.54707,0.412022,-0.476008,-0.02408929,-0.004391969999999999,-0.007453039999999999,1746801339250915
-9.554844000000001,0.413816,-0.485576,-0.02408929,-0.004525059999999999,-0.00678759,1746801359224915
-9.556638,0.416208,-0.468234,-0.023956199999999997,-0.004924329999999999,-0.009183209999999999,1746801379198695
-9.550658,0.40066,-0.48976200000000003,-0.02329075,-0.004525059999999999,-0.008118489999999999,1746801399172635
-9.556638,0.404248,-0.47541,-0.02369002,-0.00412579,-0.008783939999999999,1746801419146535
-9.542286,0.40963,-0.45747,-0.02462165,-0.00465815,-0.008118489999999999,1746801439120515
-9.558432,0.389896,-0.482586,-0.02542019,-0.0053235999999999995,-0.00785231,1746801459094535
-9.554246000000001,0.40365,-0.480792,-0.02408929,-0.00572287,-0.00785231,1746801479068375
-9.55604,0.399464,-0.468832,-0.024222379999999998,-0.00505742,-0.00718686,1746801499042175
-9.545874,0.407238,-0.471822,-0.02448856,-0.004924329999999999,-0.008384669999999999,1746801519015995
-9.541688,0.422786,-0.459862,-0.02448856,-0.0053235999999999995,-0.00865085,1746801538989875
-9.560824,0.398866,-0.467636,-0.02448856,-0.00505742,-0.00865085,1746801558963675
-9.543482000000001,0.398866,-0.479596,-0.024222379999999998,-0.004525059999999999,-0.00891703,1746801578937535
-9.552452,0.4186,-0.483782,-0.024887829999999996,-0.00505742,-0.009183209999999999,1746801598911335
-9.55604,0.401856,-0.456274,-0.024355469999999997,-0.004924329999999999,-0.007586129999999999,1746801618885395
-9.560824,0.410826,-0.477802,-0.02448856,-0.00505742,-0.00851776,1746801638859195
-9.548864,0.40963,-0.462852,-0.02408929,-0.005589779999999999,-0.008118489999999999,1746801658833075
-9.548864,0.412022,-0.464048,-0.023556929999999997,-0.005456689999999999,-0.00851776,1746801678806815
-9.545874,0.40066,-0.48139,-0.02448856,-0.00425888,-0.008118489999999999,1746801698780735
-9.547668,0.39169,-0.443716,-0.023956199999999997,-0.0047912399999999996,-0.00785231,1746801718754575
-9.524944,0.410228,-0.465842,-0.024754739999999997,-0.00572287,-0.00785231,1746801738728375
-9.55006,0.408434,-0.467038,-0.024887829999999996,-0.005589779999999999,-0.00825158,1746801758702175
-9.55305,0.402454,-0.45806800000000003,-0.025154009999999997,-0.004924329999999999,-0.008118489999999999,1746801778676095
-9.557834,0.405444,-0.459862,-0.02462165,-0.00505742,-0.008384669999999999,1746801798650095
-9.548864,0.40365,-0.484978,-0.023956199999999997,-0.005456689999999999,-0.00851776,1746801818623955
-9.543482000000001,0.398268,-0.462254,-0.023823109999999998,-0.00519051,-0.0079854,1746801838597715
-9.562618,0.409032,-0.473018,-0.02408929,-0.004924329999999999,-0.007453039999999999,1746801858571535
-9.544678,0.406042,-0.462852,-0.023956199999999997,-0.006654499999999999,-0.007586129999999999,1746801878545455
-9.552452,0.411424,-0.45448,-0.023556929999999997,-0.005589779999999999,-0.008118489999999999,1746801898519475
-9.552452,0.411424,-0.44491200000000003,-0.02462165,-0.00465815,-0.009050119999999998,1746801918493355
-9.547668,0.40963,-0.464048,-0.02408929,-0.00465815,-0.0093163,1746801938467275
-9.55604,0.389298,-0.46345000000000003,-0.024887829999999996,-0.0038596099999999994,-0.008783939999999999,1746801958441115
-9.560824,0.40963,-0.446108,-0.02408929,-0.0039927,-0.00718686,1746801978414875
-9.544678,0.411424,-0.45448,-0.02329075,-0.00505742,-0.00825158,1746801998388795
-9.552452,0.409032,-0.449696,-0.02502092,-0.005589779999999999,-0.009183209999999999,1746801019362815
-9.55604,0.406042,-0.45806800000000003,-0.024887829999999996,-0.00505742,-0.008783939999999999,1746801039336695
-9.55903,0.405444,-0.468234,-0.02369002,-0.005589779999999999,-0.008384669999999999,1746801059310535
-9.533316,0.40006200000000003,-0.45747,-0.02448856,-0.0053235999999999995,-0.007586129999999999,1746801079284355
-9.548864,0.407238,-0.446706,-0.024887829999999996,-0.005589779999999999,-0.00785231,1746801099258215
-9.545874,0.410228,-0.453284,-0.02462165,-0.00572287,-0.008384669999999999,1746801119232055
-9.536904,0.409032,-0.450294,-0.024222379999999998,-0.004924329999999999,-0.007586129999999999,1746801139205895
-9.554246000000001,0.392886,-0.45268600000000003,-0.024222379999999998,-0.005989049999999999,-0.00865085,1746801159179755
-9.55903,0.40783600000000003,-0.443716,-0.024754739999999997,-0.005456689999999999,-0.00785231,1746801179153595
-9.560226,0.415012,-0.447902,-0.024887829999999996,-0.004924329999999999,-0.007453039999999999,1746801199127395
-9.552452,0.40365,-0.470028,-0.02408929,-0.005589779999999999,-0.007719219999999999,1746801219101315
-9.560824,0.40664,-0.474812,-0.023956199999999997,-0.00572287,-0.008783939999999999,1746801239075275
-9.539296,0.397072,-0.473018,-0.02408929,-0.00572287,-0.00851776,1746801259048995
-9.550658,0.406042,-0.471822,-0.024754739999999997,-0.00612214,-0.007453039999999999,1746801279022855
-9.556638,0.416806,-0.464048,-0.024887829999999996,-0.00519051,-0.00825158,1746801298996755
-9.567402,0.413816,-0.468832,-0.023024569999999998,-0.004391969999999999,-0.008384669999999999,1746801318970675
-9.555442,0.394082,-0.478998,-0.024887829999999996,-0.00425888,-0.00785231,1746801338944515
-9.549462,0.41262,-0.446108,-0.023956199999999997,-0.00505742,-0.00851776,1746801358918335
-9.543482000000001,0.393484,-0.447902,-0.02369002,-0.004525059999999999,-0.008384669999999999,1746801378892275
-9.553648,0.41561,-0.470626,-0.02462165,-0.005589779999999999,-0.00825158,1746801398866235
-9.54109,0.407238,-0.45149,-0.024222379999999998,-0.0039927,-0.00865085,1746801418840095
-9.544678,0.40664,-0.450294,-0.023823109999999998,-0.00505742,-0.00851776,1746801438813875
-9.543482000000001,0.410826,-0.45806800000000003,-0.02448856,-0.004924329999999999,-0.007586129999999999,1746801458787835
-9.54408,0.404846,-0.4485,-0.024222379999999998,-0.00425888,-0.007053769999999999,1746801478761755
-9.548266,0.415012,-0.450892,-0.024754739999999997,-0.0053235999999999995,-0.007453039999999999,1746801498735695
-9.540492,0.407238,-0.443118,-0.023956199999999997,-0.00505742,-0.008384669999999999,1746801518709475
-9.536904,0.404248,-0.459264,-0.024754739999999997,-0.0047912399999999996,-0.00785231,1746801538683235
-9.548864,0.410228,-0.453882,-0.023956199999999997,-0.0039927,-0.007453039999999999,1746801558657155
-9.557834,0.405444,-0.477802,-0.023823109999999998,-0.00572287,-0.007719219999999999,1746801578630955
-9.548864,0.404846,-0.474214,-0.02408929,-0.004924329999999999,-0.007453039999999999,1746801598604835
-9.567402,0.4186,-0.470028,-0.02369002,-0.004391969999999999,-0.00891703,1746801618578715
-9.557834,0.4186,-0.467038,-0.023956199999999997,-0.00505742,-0.00785231,1746801638552495
-9.548266,0.40006200000000003,-0.46345000000000003,-0.02329075,-0.00465815,-0.007586129999999999,1746801658526375
-9.55903,0.40963,-0.4784,-0.023823109999999998,-0.00505742,-0.00865085,1746801678500215
-9.566804,0.4186,-0.48976200000000003,-0.024355469999999997,-0.00465815,-0.00785231,1746801698474155
-9.555442,0.409032,-0.481988,-0.024887829999999996,-0.0039927,-0.008384669999999999,1746801718447975
-9.566804,0.408434,-0.48976200000000003,-0.02462165,-0.00425888,-0.00825158,1746801738421775
-9.550658,0.402454,-0.465244,-0.023956199999999997,-0.004924329999999999,-0.008118489999999999,1746801758395595
-9.564412,0.40664,-0.441922,-0.02329075,-0.00425888,-0.008118489999999999,1746801778369555
-9.557834,0.409032,-0.46943,-0.02369002,-0.004391969999999999,-0.00851776,1746801798343435
-9.551854,0.392288,-0.474214,-0.023823109999999998,-0.00465815,-0.00891703,1746801818317215
-9.578764,0.410826,-0.468832,-0.02408929,-0.00505742,-0.00825158,1746801838291095
-9.560824,0.408434,-0.449696,-0.02502092,-0.00572287,-0.00825158,1746801858264935
-9.55604,0.407238,-0.461058,-0.023956199999999997,-0.0047912399999999996,-0.009050119999999998,1746801878238795
-9.554844000000001,0.41262,-0.45806800000000003,-0.024887829999999996,-0.005456689999999999,-0.009050119999999998,1746801898212675
-9.550658,0.40664,-0.46046,-0.02448856,-0.004924329999999999,-0.007719219999999999,1746801918186595
-9.562618,0.40006200000000003,-0.483782,-0.02329075,-0.004525059999999999,-0.00851776,1746801938160355
-9.549462,0.404248,-0.480792,-0.02369002,-0.0047912399999999996,-0.007586129999999999,1746801958134155
-9.548864,0.405444,-0.494546,-0.02408929,-0.00505742,-0.008118489999999999,1746801978107995
-9.544678,0.423384,-0.467636,-0.023823109999999998,-0.005589779999999999,-0.00851776,1746801998081955
-9.538698,0.40783600000000003,-0.465842,-0.02448856,-0.00505742,-0.008783939999999999,1746801019055855
-9.557834,0.406042,-0.470626,-0.02502092,-0.00465815,-0.009050119999999998,1746801039029635
-9.54109,0.416208,-0.473616,-0.024355469999999997,-0.004924329999999999,-0.00851776,1746801059003495
-9.542884,0.41561,-0.499928,-0.02448856,-0.005456689999999999,-0.008118489999999999,1746801078977435
-9.548864,0.401856,-0.465842,-0.02542019,-0.004924329999999999,-0.008118489999999999,1746801098951175
-9.553648,0.387504,-0.479596,-0.023956199999999997,-0.00465815,-0.007586129999999999,1746801118925135
-9.561422,0.40365,-0.45448,-0.024355469999999997,-0.00625523,-0.0079854,1746801138898915
-9.547668,0.40783600000000003,-0.465842,-0.025154009999999997,-0.0039927,-0.008384669999999999,1746801158872875
-9.55006,0.40006200000000003,-0.480194,-0.024222379999999998,-0.00465815,-0.007453039999999999,1746801178846755
-9.545276,0.39169,-0.483184,-0.024887829999999996,-0.00425888,-0.00825158,1746801198820615
-9.548864,0.40066,-0.459862,-0.024754739999999997,-0.004391969999999999,-0.00971557,1746801218794495
-9.55006,0.410826,-0.45747,-0.024355469999999997,-0.00519051,-0.00851776,1746801238768295
-9.543482000000001,0.40664,-0.449696,-0.02408929,-0.00465815,-0.00825158,1746801258742315
-9.54707,0.402454,-0.46943,-0.02369002,-0.00465815,-0.00678759,1746801278716195
-9.533316,0.410228,-0.45806800000000003,-0.024754739999999997,-0.005456689999999999,-0.00825158,1746801298689975
-9.547668,0.4186,-0.45448,-0.024355469999999997,-0.00505742,-0.007719219999999999,1746801318663755
-9.560226,0.404248,-0.446108,-0.024754739999999997,-0.00519051,-0.008384669999999999,1746801338637475
-9.548864,0.395278,-0.44491200000000003,-0.023423839999999998,-0.004924329999999999,-0.008118489999999999,1746801358611375
-9.551854,0.41561,-0.45268600000000003,-0.02502092,-0.005989049999999999,-0.008783939999999999,1746801378585235
-9.557834,0.419198,-0.47541,-0.02408929,-0.00465815,-0.0073199499999999995,1746801398559115
-9.563814,0.412022,-0.467636,-0.024355469999999997,-0.00519051,-0.00851776,1746801418532975
-9.553648,0.422188,-0.462254,-0.024754739999999997,-0.0053235999999999995,-0.00851776,1746801438506775
-9.56202,0.410228,-0.470028,-0.025154009999999997,-0.00519051,-0.00851776,1746801458480655
-9.545874,0.402454,-0.461058,-0.02408929,-0.00519051,-0.00865085,1746801478454555
-9.554844000000001,0.392886,-0.486772,-0.02369002,-0.00505742,-0.008118489999999999,1746801498428495
-9.554844000000001,0.40365,-0.464048,-0.02502092,-0.00505742,-0.008783939999999999,1746801518402295
-9.54408,0.410228,-0.455676,-0.024887829999999996,-0.00425888,-0.00891703,1746801538376115
-9.555442,0.401258,-0.464646,-0.025553279999999998,-0.00519051,-0.007719219999999999,1746801558349975
-9.533316,0.410228,-0.45747,-0.02542019,-0.00505742,-0.007719219999999999,1746801578323895
-9.55006,0.40006200000000003,-0.464646,-0.02448856,-0.004924329999999999,-0.007586129999999999,1746801598297795
-9.554246000000001,0.41561,-0.467636,-0.024887829999999996,-0.00505742,-0.00851776,1746801618271695
-9.550658,0.409032,-0.444314,-0.025154009999999997,-0.0053235999999999995,-0.008118489999999999,1746801638245555
-9.539296,0.405444,-0.459862,-0.025154009999999997,-0.00465815,-0.00851776,1746801658219355
-9.546472,0.404248,-0.46046,-0.023556929999999997,-0.00425888,-0.0079854,1746801678193275
-9.548266,0.41561,-0.47242,-0.02462165,-0.004391969999999999,-0.0079854,1746801698167075
-9.546472,0.395278,-0.461656,-0.024754739999999997,-0.004525059999999999,-0.00865085,1746801718140855
-9.54707,0.418002,-0.473018,-0.023823109999999998,-0.004525059999999999,-0.009050119999999998,1746801738114735
-9.556638,0.42159,-0.496938,-0.02408929,-0.00412579,-0.00825158,1746801758088495
-9.563216,0.40066,-0.474214,-0.023556929999999997,-0.00425888,-0.00891703,1746801778062355
-9.55305,0.407238,-0.47541,-0.023823109999999998,-0.00519051,-0.008384669999999999,1746801798036155
-9.553648,0.403052,-0.47541,-0.024887829999999996,-0.005589779999999999,-0.00865085,1746801818009975
-9.552452,0.415012,-0.43355,-0.023823109999999998,-0.004391969999999999,-0.00865085,1746801837983835
-9.557834,0.40365,-0.47660600000000003,-0.023423839999999998,-0.004525059999999999,-0.00785231,1746801857957655
-9.545276,0.416208,-0.467038,-0.023823109999999998,-0.0037265199999999997,-0.008384669999999999,1746801877931515
-9.551256,0.408434,-0.467038,-0.024222379999999998,-0.00519051,-0.008783939999999999,1746801897905275
-9.548266,0.42159,-0.470028,-0.024222379999999998,-0.005989049999999999,-0.007453039999999999,1746801917879075
-9.552452,0.395876,-0.465842,-0.02462165,-0.0058559599999999995,-0.008118489999999999,1746801937852975
-9.553648,0.404846,-0.46345000000000003,-0.023956199999999997,-0.005589779999999999,-0.00718686,1746801957826855
-9.543482000000001,0.422188,-0.465244,-0.024222379999999998,-0.0053235999999999995,-0.00825158,1746801977800755
-9.550658,0.391092,-0.438932,-0.02462165,-0.00505742,-0.007453039999999999,1746801997774615
