ax,ay,az,rx,ry,rz,timestamp
10.032646,-0.06279,-0.845572,-0.023823109999999998,-0.004924329999999999,-0.0079854,1746801981171633
10.02547,-0.052026,-0.836004,-0.02542019,-0.0047912399999999996,-0.006388319999999999,1746802001143953
10.020088,-0.066378,-0.83421,-0.02408929,-0.00412579,-0.006654499999999999,1746802021116293
10.027264,-0.058006,-0.8527480000000001,-0.02502092,-0.004924329999999999,-0.006920679999999999,1746802041088693
10.026068,-0.052026,-0.84916,-0.025553279999999998,-0.00412579,-0.007719219999999999,1746802061060893
10.018294000000001,-0.067574,-0.8581300000000001,-0.025686369999999997,-0.00425888,-0.007719219999999999,1746802081033213
10.02547,-0.056212,-0.853944,-0.024355469999999997,-0.004924329999999999,-0.0073199499999999995,1746802101005533
10.02846,-0.050232,-0.854542,-0.023956199999999997,-0.005456689999999999,-0.007719219999999999,1746802120977813
10.015304,-0.056212,-0.846768,-0.02408929,-0.00519051,-0.00678759,1746802140950133
10.023676,-0.062192,-0.865904,-0.025154009999999997,-0.006388319999999999,-0.006521409999999999,1746802160922373
10.030254,-0.060398,-0.85514,-0.02542019,-0.00505742,-0.00718686,1746802180894333
10.020686,-0.053222,-0.859924,-0.02448856,-0.00465815,-0.007453039999999999,1746802200866473
10.017696,-0.05382,-0.8473660000000001,-0.025287099999999996,-0.00412579,-0.006920679999999999,1746802220838633
10.020088,-0.07295600000000001,-0.853944,-0.02369002,-0.0038596099999999994,-0.007053769999999999,1746801241810753
10.017696,-0.060398,-0.833612,-0.023956199999999997,-0.00425888,-0.007586129999999999,1746801261782793
10.036832,-0.04485,-0.850954,-0.024355469999999997,-0.0039927,-0.007586129999999999,1746801281754893
10.02846,-0.06279,-0.830622,-0.023823109999999998,-0.00465815,-0.006654499999999999,1746801301727013
10.029656,-0.059202,-0.859924,-0.02369002,-0.0047912399999999996,-0.006920679999999999,1746801321699233
10.01949,-0.05083,-0.861718,-0.023956199999999997,-0.004391969999999999,-0.0073199499999999995,1746801341671373
10.015304,-0.058006,-0.830024,-0.02462165,-0.0053235999999999995,-0.007453039999999999,1746801361643533
10.020088,-0.051428,-0.854542,-0.02462165,-0.005456689999999999,-0.006521409999999999,1746801381615693
10.030852,-0.051428,-0.828828,-0.023823109999999998,-0.00425888,-0.006654499999999999,1746801401587833
10.026068,-0.055614000000000004,-0.85215,-0.02408929,-0.0053235999999999995,-0.006920679999999999,1746801421560033
10.014706,-0.06877,-0.844974,-0.024754739999999997,-0.005456689999999999,-0.0073199499999999995,1746801441532233
10.024274,-0.046644,-0.844376,-0.025553279999999998,-0.005456689999999999,-0.007453039999999999,1746801461504453
10.035636,-0.056212,-0.845572,-0.025154009999999997,-0.0053235999999999995,-0.007586129999999999,1746801481476633
10.02846,-0.055016,-0.825838,-0.024887829999999996,-0.00505742,-0.006920679999999999,1746801501448693
10.011716,-0.060398,-0.847964,-0.02408929,-0.004391969999999999,-0.00678759,1746801521420953
10.015304,-0.062192,-0.859924,-0.023556929999999997,-0.004924329999999999,-0.006521409999999999,1746801541393013
10.024274,-0.05382,-0.824044,-0.024222379999999998,-0.005589779999999999,-0.006654499999999999,1746801561365153
10.024274,-0.049036,-0.853944,-0.023956199999999997,-0.004391969999999999,-0.0073199499999999995,1746801581337293
10.01949,-0.04784,-0.840788,-0.02448856,-0.004525059999999999,-0.006654499999999999,1746801601309473
10.01052,-0.040066,-0.850356,-0.024754739999999997,-0.0047912399999999996,-0.007453039999999999,1746801621281653
10.046998,-0.057408,-0.850954,-0.024887829999999996,-0.00505742,-0.006521409999999999,1746801641253833
10.02248,-0.052026,-0.866502,-0.024754739999999997,-0.00572287,-0.007586129999999999,1746801681198133
10.020088,-0.052026,-0.85514,-0.024754739999999997,-0.005589779999999999,-0.006388319999999999,1746801701170353
10.014706,-0.068172,-0.851552,-0.025287099999999996,-0.0053235999999999995,-0.00678759,1746801721142473
10.02248,-0.065182,-0.842582,-0.02502092,-0.005589779999999999,-0.00678759,1746801741114593
10.03444,-0.05083,-0.848562,-0.02408929,-0.0053235999999999995,-0.007719219999999999,1746801761086793
10.03743,-0.05681,-0.845572,-0.02448856,-0.004391969999999999,-0.0079854,1746801781058913
10.024274,-0.055016,-0.856336,-0.024222379999999998,-0.005589779999999999,-0.00825158,1746801801031133
10.014108,-0.053222,-0.85215,-0.02448856,-0.00572287,-0.006920679999999999,1746801821003333
10.02547,-0.04485,-0.8527480000000001,-0.024355469999999997,-0.00465815,-0.008118489999999999,1746801840975533
10.02248,-0.063986,-0.86112,-0.025553279999999998,-0.00519051,-0.007719219999999999,1746801860947853
10.02547,-0.068172,-0.843778,-0.024887829999999996,-0.0047912399999999996,-0.0073199499999999995,1746801880920073
10.029058000000001,-0.064584,-0.839592,-0.024754739999999997,-0.004525059999999999,-0.006654499999999999,1746801900892313
10.020088,-0.06697600000000001,-0.835406,-0.025154009999999997,-0.0047912399999999996,-0.00825158,1746801920864593
10.021284,-0.056212,-0.842582,-0.02502092,-0.00519051,-0.00625523,1746801940836913
10.02846,-0.06279,-0.841386,-0.02462165,-0.005456689999999999,-0.007453039999999999,1746801960809093
10.024274,-0.063388,-0.8581300000000001,-0.024887829999999996,-0.0047912399999999996,-0.007053769999999999,1746801980781373
10.023676,-0.06697600000000001,-0.844376,-0.02408929,-0.00519051,-0.0073199499999999995,1746802000753653
10.02547,-0.063388,-0.827632,-0.025287099999999996,-0.00519051,-0.0073199499999999995,1746802020725933
10.021882,-0.056212,-0.853346,-0.024754739999999997,-0.0047912399999999996,-0.006521409999999999,1746802040698193
10.032048,-0.064584,-0.827034,-0.025154009999999997,-0.00425888,-0.00718686,1746802060670433
10.023676,-0.061594,-0.868894,-0.025154009999999997,-0.00519051,-0.00678759,1746802080642633
10.035038,-0.048438,-0.859924,-0.024887829999999996,-0.004924329999999999,-0.007053769999999999,1746802100614833
10.033842,-0.05681,-0.871884,-0.02502092,-0.004525059999999999,-0.00718686,1746802120587133
10.017098,-0.069966,-0.8581300000000001,-0.025553279999999998,-0.00572287,-0.00851776,1746802140559453
10.017098,-0.059202,-0.851552,-0.024887829999999996,-0.005989049999999999,-0.00825158,1746802160531653
10.036234,-0.055016,-0.833612,-0.023956199999999997,-0.004924329999999999,-0.00678759,1746802180503853
10.02547,-0.052624000000000004,-0.859326,-0.024355469999999997,-0.0047912399999999996,-0.00612214,1746802200476133
10.015902,-0.044252,-0.8473660000000001,-0.02502092,-0.00519051,-0.007719219999999999,1746802220448373
10.007530000000001,-0.048438,-0.856934,-0.025154009999999997,-0.00519051,-0.007719219999999999,1746801241420653
10.018892,-0.04186,-0.851552,-0.02542019,-0.00505742,-0.00785231,1746801261392873
10.030254,-0.060996,-0.857532,-0.025686369999999997,-0.00519051,-0.00825158,1746801281365133
10.02547,-0.051428,-0.84318,-0.025154009999999997,-0.00612214,-0.006521409999999999,1746801301337333
10.012912,-0.065182,-0.833014,-0.02542019,-0.004924329999999999,-0.006521409999999999,1746801321309653
10.020088,-0.046046000000000004,-0.84617,-0.025287099999999996,-0.0047912399999999996,-0.0073199499999999995,1746801341281913
10.015304,-0.052026,-0.882648,-0.02462165,-0.0058559599999999995,-0.00851776,1746801361254173
10.027264,-0.061594,-0.849758,-0.02462165,-0.005589779999999999,-0.007053769999999999,1746801381226473
10.026068,-0.06877,-0.85514,-0.02502092,-0.00465815,-0.007719219999999999,1746801401198673
10.026068,-0.05382,-0.860522,-0.024222379999999998,-0.0039927,-0.00718686,1746801421170953
10.020686,-0.069966,-0.856934,-0.02448856,-0.004391969999999999,-0.006388319999999999,1746801441143393
10.030254,-0.051428,-0.853944,-0.02462165,-0.00519051,-0.008118489999999999,1746801461115693
10.02547,-0.0598,-0.840788,-0.02542019,-0.005456689999999999,-0.007719219999999999,1746801481088033
10.026666,-0.055614000000000004,-0.833612,-0.025553279999999998,-0.005589779999999999,-0.007586129999999999,1746801501060293
10.0165,-0.058604,-0.864708,-0.026085639999999997,-0.004391969999999999,-0.007719219999999999,1746801521032673
10.030852,-0.063388,-0.836004,-0.025553279999999998,-0.00519051,-0.007719219999999999,1746801541004973
10.024274,-0.0598,-0.856336,-0.025287099999999996,-0.0053235999999999995,-0.007719219999999999,1746801560977313
10.047596,-0.051428,-0.859326,-0.02408929,-0.005589779999999999,-0.007053769999999999,1746801580949473
10.030852,-0.054418,-0.850954,-0.02448856,-0.00505742,-0.0073199499999999995,1746801600921713
10.026666,-0.061594,-0.862914,-0.024222379999999998,-0.00505742,-0.006920679999999999,1746801620893953
10.027862,-0.054418,-0.8473660000000001,-0.025154009999999997,-0.005589779999999999,-0.008118489999999999,1746801640866153
10.03444,-0.060996,-0.876668,-0.023956199999999997,-0.0053235999999999995,-0.00718686,1746801660838433
10.020686,-0.051428,-0.85514,-0.024222379999999998,-0.00505742,-0.00785231,1746801680810633
10.023078,-0.063986,-0.856934,-0.023423839999999998,-0.004525059999999999,-0.007719219999999999,1746801700782873
10.011716,-0.0598,-0.848562,-0.024222379999999998,-0.0047912399999999996,-0.00825158,1746801720755213
10.021284,-0.04485,-0.862316,-0.024355469999999997,-0.005589779999999999,-0.00678759,1746801740727433
10.023078,-0.049634,-0.868894,-0.024222379999999998,-0.005589779999999999,-0.007453039999999999,1746801760699613
10.024872,-0.067574,-0.85215,-0.023956199999999997,-0.00505742,-0.007053769999999999,1746801780671773
10.029058000000001,-0.049036,-0.86411,-0.023956199999999997,-0.005589779999999999,-0.007053769999999999,1746801800644073
10.017696,-0.048438,-0.8527480000000001,-0.024887829999999996,-0.00572287,-0.006654499999999999,1746801820616273
10.026068,-0.046046000000000004,-0.84318,-0.02502092,-0.004924329999999999,-0.006920679999999999,1746801840588413
10.032646,-0.048438,-0.842582,-0.024754739999999997,-0.00412579,-0.006654499999999999,1746801860560733
10.020686,-0.046046000000000004,-0.844974,-0.025686369999999997,-0.004924329999999999,-0.006920679999999999,1746801880532893
10.02846,-0.067574,-0.840788,-0.024754739999999997,-0.005456689999999999,-0.007719219999999999,1746801900505073
10.02547,-0.07176,-0.86411,-0.02408929,-0.005589779999999999,-0.006654499999999999,1746801920477313
10.033842,-0.052026,-0.815074,-0.02408929,-0.005589779999999999,-0.0079854,1746801940449473
10.029656,-0.065182,-0.836004,-0.02448856,-0.00505742,-0.00625523,1746801960421673
10.041616,-0.059202,-0.860522,-0.024355469999999997,-0.00519051,-0.007719219999999999,1746801980393873
10.030852,-0.060996,-0.839592,-0.024355469999999997,-0.00425888,-0.007053769999999999,1746802000366073
10.023676,-0.064584,-0.856934,-0.024355469999999997,-0.004924329999999999,-0.006920679999999999,1746802020338453
10.01949,-0.0598,-0.850356,-0.024754739999999997,-0.005456689999999999,-0.008118489999999999,1746802040310753
10.032646,-0.06697600000000001,-0.853346,-0.024754739999999997,-0.0053235999999999995,-0.006920679999999999,1746802060283013
10.015304,-0.049634,-0.83122,-0.02448856,-0.00505742,-0.007053769999999999,1746802080255093
10.018892,-0.067574,-0.861718,-0.02408929,-0.004391969999999999,-0.007586129999999999,1746802100227493
10.029656,-0.060398,-0.8419840000000001,-0.023823109999999998,-0.0038596099999999994,-0.006920679999999999,1746802120199733
10.018892,-0.05382,-0.846768,-0.02448856,-0.0047912399999999996,-0.008118489999999999,1746802140171913
10.029656,-0.066378,-0.855738,-0.02448856,-0.0053235999999999995,-0.0073199499999999995,1746802160144133
10.035038,-0.045448,-0.850356,-0.024222379999999998,-0.004391969999999999,-0.006920679999999999,1746802180116413
10.026068,-0.060398,-0.844376,-0.023956199999999997,-0.004525059999999999,-0.006654499999999999,1746802200088613
10.01351,-0.063388,-0.853346,-0.024355469999999997,-0.00465815,-0.007053769999999999,1746802220060913
10.018294000000001,-0.060996,-0.839592,-0.024887829999999996,-0.00505742,-0.0073199499999999995,1746801241033153
10.03444,-0.05083,-0.85514,-0.025154009999999997,-0.004924329999999999,-0.006920679999999999,1746801261005493
10.029656,-0.05382,-0.871884,-0.026085639999999997,-0.004525059999999999,-0.006521409999999999,1746801280977793
10.02846,-0.053222,-0.84318,-0.02502092,-0.00505742,-0.007719219999999999,1746801300949953
10.035636,-0.06877,-0.840788,-0.024887829999999996,-0.00465815,-0.007719219999999999,1746801320922213
10.020088,-0.049036,-0.84019,-0.02581946,-0.004924329999999999,-0.0073199499999999995,1746801340894613
10.033244,-0.065182,-0.817466,-0.02462165,-0.005456689999999999,-0.00678759,1746801360866833
10.03444,-0.06578,-0.862914,-0.024754739999999997,-0.00412579,-0.00625523,1746801380839093
10.036832,-0.057408,-0.851552,-0.024355469999999997,-0.00505742,-0.006920679999999999,1746801400811413
10.030254,-0.065182,-0.856336,-0.02408929,-0.005456689999999999,-0.00825158,1746801420783773
10.023078,-0.059202,-0.860522,-0.025154009999999997,-0.0053235999999999995,-0.007586129999999999,1746801440755973
10.014108,-0.056212,-0.84617,-0.025287099999999996,-0.00505742,-0.00718686,1746801460728313
10.01949,-0.052026,-0.865306,-0.02581946,-0.004924329999999999,-0.0073199499999999995,1746801480700753
10.033842,-0.056212,-0.8527480000000001,-0.02408929,-0.004525059999999999,-0.007719219999999999,1746801500672953
10.02248,-0.065182,-0.85215,-0.024754739999999997,-0.005456689999999999,-0.006654499999999999,1746801520645293
10.032646,-0.057408,-0.820456,-0.02502092,-0.0058559599999999995,-0.006920679999999999,1746801540617713
10.035038,-0.060996,-0.821652,-0.024754739999999997,-0.0058559599999999995,-0.006654499999999999,1746801560590013
10.021882,-0.040066,-0.85514,-0.02329075,-0.005589779999999999,-0.006920679999999999,1746801580562333
10.053576,-0.067574,-0.866502,-0.02329075,-0.00505742,-0.0073199499999999995,1746801600534593
10.030254,-0.0598,-0.859326,-0.02448856,-0.00519051,-0.0073199499999999995,1746801620506833
10.02846,-0.057408,-0.83421,-0.024754739999999997,-0.004924329999999999,-0.00678759,1746801640479133
10.026068,-0.060398,-0.867698,-0.02462165,-0.0053235999999999995,-0.00785231,1746801660451173
10.041018,-0.063388,-0.821652,-0.02502092,-0.004924329999999999,-0.0073199499999999995,1746801680423473
10.035038,-0.0598,-0.8372,-0.024355469999999997,-0.00465815,-0.006920679999999999,1746801700395753
10.029058000000001,-0.063986,-0.8527480000000001,-0.024887829999999996,-0.00465815,-0.007719219999999999,1746801720368073
10.027264,-0.057408,-0.85215,-0.026085639999999997,-0.00465815,-0.006388319999999999,1746801740340113
10.030852,-0.0598,-0.854542,-0.025287099999999996,-0.00425888,-0.006920679999999999,1746801760312313
10.039224,-0.052624000000000004,-0.825838,-0.02502092,-0.00465815,-0.00678759,1746801780284553
10.024872,-0.056212,-0.850954,-0.024887829999999996,-0.0039927,-0.007586129999999999,1746801800256853
10.01351,-0.05382,-0.838994,-0.02462165,-0.0038596099999999994,-0.008118489999999999,1746801820229073
10.03444,-0.050232,-0.849758,-0.024355469999999997,-0.004391969999999999,-0.006521409999999999,1746801840201333
10.030254,-0.051428,-0.838994,-0.02448856,-0.0039927,-0.006920679999999999,1746801860173533
10.035636,-0.04784,-0.858728,-0.024222379999999998,-0.004525059999999999,-0.007453039999999999,1746801880145893
10.027264,-0.05681,-0.87308,-0.024754739999999997,-0.0047912399999999996,-0.006920679999999999,1746801900118013
10.027862,-0.0598,-0.853346,-0.024754739999999997,-0.00465815,-0.006654499999999999,1746801920090333
10.02547,-0.059202,-0.862316,-0.02462165,-0.0034603399999999997,-0.007453039999999999,1746801940062633
10.026068,-0.060996,-0.84318,-0.02502092,-0.004525059999999999,-0.007586129999999999,1746801960034893
10.03145,-0.069368,-0.857532,-0.02462165,-0.004924329999999999,-0.0079854,1746801980007233
10.024274,-0.06697600000000001,-0.850954,-0.024222379999999998,-0.004391969999999999,-0.00865085,1746801999979473
10.038028,-0.064584,-0.870688,-0.02502092,-0.004391969999999999,-0.006920679999999999,1746802019951773
10.02846,-0.063388,-0.8736780000000001,-0.025154009999999997,-0.005589779999999999,-0.007053769999999999,1746802039924153
10.02547,-0.061594,-0.851552,-0.025154009999999997,-0.005456689999999999,-0.00678759,1746802059896453
10.029058000000001,-0.05681,-0.848562,-0.024754739999999997,-0.004525059999999999,-0.007053769999999999,1746802079868733
10.026068,-0.056212,-0.833612,-0.02448856,-0.0039927,-0.00572287,1746802099840973
10.024872,-0.05681,-0.849758,-0.024754739999999997,-0.00505742,-0.005989049999999999,1746802119813273
10.036234,-0.062192,-0.844974,-0.02462165,-0.00425888,-0.006388319999999999,1746802139785513
10.023676,-0.05681,-0.8473660000000001,-0.024754739999999997,-0.0047912399999999996,-0.007053769999999999,1746802159757693
10.02846,-0.067574,-0.856934,-0.02329075,-0.004924329999999999,-0.006521409999999999,1746802179729833
10.029058000000001,-0.057408,-0.84916,-0.023823109999999998,-0.0047912399999999996,-0.00718686,1746802199702173
10.024872,-0.052624000000000004,-0.8527480000000001,-0.02462165,-0.0047912399999999996,-0.00678759,1746802219674453
10.026666,-0.058006,-0.853944,-0.024222379999999998,-0.00505742,-0.007586129999999999,1746801240646793
10.026666,-0.043056,-0.843778,-0.024355469999999997,-0.0053235999999999995,-0.007719219999999999,1746801260619113
10.03743,-0.060996,-0.854542,-0.024887829999999996,-0.00519051,-0.0073199499999999995,1746801280591453
10.021882,-0.064584,-0.862914,-0.02448856,-0.00519051,-0.007586129999999999,1746801300563813
10.035038,-0.058604,-0.874276,-0.023956199999999997,-0.005456689999999999,-0.0073199499999999995,1746801320536033
10.02248,-0.059202,-0.857532,-0.023956199999999997,-0.005589779999999999,-0.00718686,1746801340508373
10.032646,-0.057408,-0.834808,-0.023956199999999997,-0.00425888,-0.007053769999999999,1746801360480633
10.024274,-0.074152,-0.8671,-0.02462165,-0.00465815,-0.007586129999999999,1746801380452993
10.020088,-0.052624000000000004,-0.876668,-0.024222379999999998,-0.005589779999999999,-0.007053769999999999,1746801400425273
10.02248,-0.049634,-0.8736780000000001,-0.024355469999999997,-0.005989049999999999,-0.007586129999999999,1746801420397633
10.039822000000001,-0.058006,-0.828828,-0.02408929,-0.0038596099999999994,-0.007586129999999999,1746801440369873
10.029058000000001,-0.07176,-0.859326,-0.02448856,-0.004924329999999999,-0.007053769999999999,1746801460342213
10.02846,-0.055016,-0.827632,-0.024355469999999997,-0.0053235999999999995,-0.0073199499999999995,1746801480314453
10.03444,-0.051428,-0.846768,-0.02502092,-0.0058559599999999995,-0.007453039999999999,1746801500286733
10.039224,-0.054418,-0.86112,-0.023956199999999997,-0.00505742,-0.007453039999999999,1746801520258913
10.038626,-0.047242,-0.862914,-0.02502092,-0.00465815,-0.0073199499999999995,1746801540231353
10.02846,-0.053222,-0.8473660000000001,-0.025154009999999997,-0.004391969999999999,-0.006388319999999999,1746801560203533
10.030254,-0.037674,-0.834808,-0.02462165,-0.004924329999999999,-0.006920679999999999,1746801580175733
10.011118,-0.054418,-0.8419840000000001,-0.023956199999999997,-0.00572287,-0.00718686,1746801600148013
10.02846,-0.06279,-0.86112,-0.02369002,-0.00425888,-0.007586129999999999,1746801620120033
10.029656,-0.049036,-0.832416,-0.02502092,-0.0047912399999999996,-0.0079854,1746801640092273
10.027862,-0.06578,-0.844974,-0.024887829999999996,-0.004525059999999999,-0.00718686,1746801660064453
10.030852,-0.060398,-0.839592,-0.02448856,-0.00412579,-0.00625523,1746801680036553
10.023676,-0.051428,-0.859924,-0.02462165,-0.00425888,-0.006521409999999999,1746801700008813
10.026068,-0.05681,-0.849758,-0.02369002,-0.0038596099999999994,-0.006521409999999999,1746801719981093
10.020686,-0.058604,-0.83421,-0.024887829999999996,-0.004924329999999999,-0.006920679999999999,1746801739953393
10.018892,-0.054418,-0.8581300000000001,-0.02408929,-0.0053235999999999995,-0.007586129999999999,1746801759925473
10.023676,-0.058006,-0.846768,-0.02462165,-0.005456689999999999,-0.006920679999999999,1746801779897813
10.026666,-0.065182,-0.864708,-0.02462165,-0.00519051,-0.006654499999999999,1746801799870153
10.030254,-0.051428,-0.860522,-0.024887829999999996,-0.004924329999999999,-0.00718686,1746801819842473
10.02846,-0.04485,-0.82823,-0.02408929,-0.00425888,-0.00718686,1746801839814613
10.032048,-0.058604,-0.859924,-0.024355469999999997,-0.004391969999999999,-0.00718686,1746801859787013
10.036234,-0.049036,-0.837798,-0.024754739999999997,-0.00465815,-0.00625523,1746801879759293
10.041616,-0.037674,-0.839592,-0.02502092,-0.00505742,-0.00718686,1746801899731653
10.027862,-0.059202,-0.858728,-0.024754739999999997,-0.00505742,-0.008384669999999999,1746801919703993
10.023676,-0.063388,-0.843778,-0.024355469999999997,-0.00519051,-0.0073199499999999995,1746801939676233
10.041616,-0.06279,-0.833014,-0.024222379999999998,-0.0053235999999999995,-0.0073199499999999995,1746801959648453
10.035636,-0.06578,-0.841386,-0.023823109999999998,-0.00465815,-0.0073199499999999995,1746801979620613
10.023078,-0.063388,-0.835406,-0.023556929999999997,-0.004924329999999999,-0.007586129999999999,1746801999592973
10.030254,-0.0598,-0.849758,-0.02462165,-0.0037265199999999997,-0.008118489999999999,1746802019565273
10.03145,-0.050232,-0.8581300000000001,-0.02502092,-0.0053235999999999995,-0.006521409999999999,1746802039537653
10.02846,-0.072358,-0.86411,-0.025154009999999997,-0.004525059999999999,-0.005989049999999999,1746802059510033
10.014706,-0.064584,-0.842582,-0.02448856,-0.0047912399999999996,-0.006920679999999999,1746802079482333
10.02248,-0.060996,-0.866502,-0.02462165,-0.00465815,-0.00718686,1746802099454593
10.009922,-0.054418,-0.844376,-0.024887829999999996,-0.00465815,-0.007053769999999999,1746802119426933
10.032048,-0.059202,-0.850954,-0.024754739999999997,-0.00519051,-0.007586129999999999,1746802139399253
10.02846,-0.0598,-0.839592,-0.02502092,-0.0047912399999999996,-0.0079854,1746802159371493
10.026666,-0.055614000000000004,-0.860522,-0.024355469999999997,-0.0047912399999999996,-0.007586129999999999,1746802179343573
10.026666,-0.059202,-0.838994,-0.02542019,-0.00465815,-0.006654499999999999,1746802199315793
10.035636,-0.07295600000000001,-0.868296,-0.02369002,-0.004924329999999999,-0.00718686,1746802219288133
10.038626,-0.058006,-0.842582,-0.02369002,-0.004391969999999999,-0.006654499999999999,1746801240260473
10.020088,-0.057408,-0.858728,-0.02448856,-0.005456689999999999,-0.00718686,1746801260232813
10.029656,-0.053222,-0.849758,-0.025154009999999997,-0.0039927,-0.008118489999999999,1746801280205133
10.018294000000001,-0.052026,-0.83122,-0.02448856,-0.0047912399999999996,-0.008118489999999999,1746801300177433
10.038626,-0.056212,-0.841386,-0.023956199999999997,-0.00465815,-0.007719219999999999,1746801320149653
10.030852,-0.059202,-0.86112,-0.025287099999999996,-0.00519051,-0.0073199499999999995,1746801340121753
10.03145,-0.069966,-0.8264360000000001,-0.024754739999999997,-0.00425888,-0.0079854,1746801360094013
10.027264,-0.047242,-0.856934,-0.025287099999999996,-0.004525059999999999,-0.007053769999999999,1746801380066213
10.0165,-0.043654,-0.850954,-0.024754739999999997,-0.00572287,-0.00718686,1746801400038573
10.018294000000001,-0.056212,-0.843778,-0.024355469999999997,-0.0047912399999999996,-0.007053769999999999,1746801420010793
10.03145,-0.04784,-0.848562,-0.024355469999999997,-0.00572287,-0.0058559599999999995,1746801439982953
10.014706,-0.034684,-0.859326,-0.024754739999999997,-0.00519051,-0.0073199499999999995,1746801459955133
10.0165,-0.058604,-0.860522,-0.024754739999999997,-0.0053235999999999995,-0.00612214,1746801479927453
10.024274,-0.061594,-0.848562,-0.025952549999999998,-0.00519051,-0.006920679999999999,1746801499899553
10.01949,-0.060996,-0.845572,-0.025154009999999997,-0.0053235999999999995,-0.007053769999999999,1746801519871713
10.020686,-0.055614000000000004,-0.8671,-0.024754739999999997,-0.005989049999999999,-0.007053769999999999,1746801539843893
10.021882,-0.06578,-0.859326,-0.02502092,-0.00519051,-0.007053769999999999,1746801559816013
10.024872,-0.070564,-0.869492,-0.024355469999999997,-0.0047912399999999996,-0.0079854,1746801579788253
10.026666,-0.052624000000000004,-0.844376,-0.02369002,-0.0053235999999999995,-0.007453039999999999,1746801599760553
10.029656,-0.039468,-0.858728,-0.02542019,-0.00465815,-0.007053769999999999,1746801619732933
10.03145,-0.05681,-0.836602,-0.024355469999999997,-0.00519051,-0.007719219999999999,1746801639705093
10.03145,-0.049634,-0.840788,-0.024887829999999996,-0.00505742,-0.007053769999999999,1746801659677313
10.018294000000001,-0.061594,-0.844376,-0.024754739999999997,-0.004391969999999999,-0.00718686,1746801679649453
10.00454,-0.04485,-0.833612,-0.02448856,-0.005456689999999999,-0.00718686,1746801699621533
10.024872,-0.060996,-0.851552,-0.025154009999999997,-0.005456689999999999,-0.00678759,1746801719593693
10.012314,-0.054418,-0.855738,-0.024754739999999997,-0.00465815,-0.00785231,1746801739565993
10.030254,-0.056212,-0.827632,-0.024355469999999997,-0.0047912399999999996,-0.008118489999999999,1746801759538213
10.035636,-0.063388,-0.859924,-0.02462165,-0.0053235999999999995,-0.00678759,1746801779510453
10.020686,-0.051428,-0.869492,-0.02369002,-0.00572287,-0.00678759,1746801799482773
10.035038,-0.060996,-0.85514,-0.024222379999999998,-0.005589779999999999,-0.007453039999999999,1746801819455033
10.024872,-0.052026,-0.850954,-0.024754739999999997,-0.0053235999999999995,-0.00718686,1746801839427293
10.021882,-0.063986,-0.833014,-0.024355469999999997,-0.0053235999999999995,-0.0073199499999999995,1746801859399493
10.0165,-0.0598,-0.843778,-0.02462165,-0.005456689999999999,-0.00785231,1746801879371853
10.020088,-0.060996,-0.855738,-0.024887829999999996,-0.004525059999999999,-0.007053769999999999,1746801899344113
10.024872,-0.050232,-0.8527480000000001,-0.023956199999999997,-0.004525059999999999,-0.006388319999999999,1746801919316373
10.033244,-0.062192,-0.856336,-0.023556929999999997,-0.004525059999999999,-0.00678759,1746801939288733
10.02547,-0.050232,-0.8473660000000001,-0.024222379999999998,-0.00465815,-0.007719219999999999,1746801959261073
10.032646,-0.055614000000000004,-0.829426,-0.024222379999999998,-0.0037265199999999997,-0.00718686,1746801979233513
10.035038,-0.068172,-0.862914,-0.024887829999999996,-0.004924329999999999,-0.006920679999999999,1746801999205833
10.0165,-0.06279,-0.8473660000000001,-0.024887829999999996,-0.00359343,-0.007453039999999999,1746802019178133
10.023676,-0.06279,-0.859326,-0.02462165,-0.00505742,-0.00718686,1746802039150393
10.03145,-0.049036,-0.85215,-0.02502092,-0.00519051,-0.0073199499999999995,1746802059122633
10.023676,-0.064584,-0.845572,-0.02448856,-0.004525059999999999,-0.006388319999999999,1746802079094993
10.023676,-0.051428,-0.837798,-0.023556929999999997,-0.0047912399999999996,-0.006920679999999999,1746802099067313
10.02846,-0.0598,-0.843778,-0.024754739999999997,-0.00425888,-0.00785231,1746802119039493
10.02547,-0.06877,-0.8581300000000001,-0.02462165,-0.00425888,-0.00718686,1746802139011693
10.000952,-0.066378,-0.856336,-0.024355469999999997,-0.005589779999999999,-0.00718686,1746802158984093
10.026068,-0.05382,-0.859326,-0.024887829999999996,-0.005589779999999999,-0.00718686,1746802178956473
10.020088,-0.049634,-0.862316,-0.025154009999999997,-0.005589779999999999,-0.006654499999999999,1746802198928793
10.027264,-0.060996,-0.8527480000000001,-0.024355469999999997,-0.004924329999999999,-0.007053769999999999,1746802218901153
10.030852,-0.04186,-0.833014,-0.024222379999999998,-0.00519051,-0.00678759,1746801239873573
10.033244,-0.060398,-0.868894,-0.024355469999999997,-0.00572287,-0.007586129999999999,1746801259845913
10.01949,-0.065182,-0.841386,-0.02502092,-0.0039927,-0.007053769999999999,1746801279818213
10.038626,-0.047242,-0.846768,-0.024754739999999997,-0.0047912399999999996,-0.007053769999999999,1746801299790513
10.036832,-0.049634,-0.862914,-0.02502092,-0.004391969999999999,-0.00785231,1746801319762893
10.027264,-0.051428,-0.865306,-0.024355469999999997,-0.00465815,-0.008384669999999999,1746801339735213
10.024872,-0.050232,-0.83421,-0.025154009999999997,-0.00412579,-0.007453039999999999,1746801359707713
10.035038,-0.05083,-0.848562,-0.02502092,-0.00519051,-0.006654499999999999,1746801379680133
10.03444,-0.062192,-0.844376,-0.02448856,-0.0058559599999999995,-0.00785231,1746801399652533
10.026666,-0.060398,-0.8473660000000001,-0.023823109999999998,-0.00572287,-0.0073199499999999995,1746801419624853
10.024274,-0.055614000000000004,-0.85514,-0.024222379999999998,-0.00505742,-0.006521409999999999,1746801439597173
10.032048,-0.065182,-0.861718,-0.02408929,-0.00425888,-0.006920679999999999,1746801459569533
10.024274,-0.058006,-0.855738,-0.024754739999999997,-0.004924329999999999,-0.007053769999999999,1746801479541853
10.024274,-0.065182,-0.849758,-0.02462165,-0.005456689999999999,-0.007053769999999999,1746801499514333
10.045204,-0.06578,-0.859924,-0.02448856,-0.004391969999999999,-0.006920679999999999,1746801519486553
10.024274,-0.06578,-0.84617,-0.023956199999999997,-0.005456689999999999,-0.007053769999999999,1746801539458873
10.026068,-0.071162,-0.850356,-0.02502092,-0.00572287,-0.006521409999999999,1746801559431193
10.029058000000001,-0.059202,-0.853944,-0.025154009999999997,-0.004525059999999999,-0.00612214,1746801579403393
10.024872,-0.062192,-0.853346,-0.025154009999999997,-0.00505742,-0.0073199499999999995,1746801599375793
10.023078,-0.043056,-0.856934,-0.02408929,-0.005589779999999999,-0.0073199499999999995,1746801619348133
10.02846,-0.06697600000000001,-0.857532,-0.024355469999999997,-0.005989049999999999,-0.00718686,1746801639320333
10.023078,-0.062192,-0.86411,-0.02408929,-0.00505742,-0.00718686,1746801659292613
10.030254,-0.055614000000000004,-0.866502,-0.02502092,-0.00505742,-0.00678759,1746801679264933
10.021284,-0.058604,-0.8790600000000001,-0.02502092,-0.004391969999999999,-0.006388319999999999,1746801699237193
10.033244,-0.066378,-0.85215,-0.024754739999999997,-0.00519051,-0.007586129999999999,1746801719209493
10.026666,-0.04784,-0.868894,-0.02448856,-0.00572287,-0.007053769999999999,1746801739181933
10.026666,-0.043056,-0.853944,-0.024222379999999998,-0.0053235999999999995,-0.00718686,1746801759154313
10.033244,-0.063388,-0.836602,-0.024754739999999997,-0.00505742,-0.0073199499999999995,1746801779126693
10.027862,-0.060398,-0.877864,-0.024355469999999997,-0.005456689999999999,-0.007453039999999999,1746801799098853
10.035636,-0.056212,-0.846768,-0.023956199999999997,-0.005589779999999999,-0.00678759,1746801819071153
10.035636,-0.052026,-0.853346,-0.024355469999999997,-0.00505742,-0.007586129999999999,1746801839043493
10.042812,-0.064584,-0.8527480000000001,-0.02448856,-0.00425888,-0.006388319999999999,1746801859015773
10.023676,-0.064584,-0.829426,-0.02329075,-0.004525059999999999,-0.008118489999999999,1746801878987973
10.035636,-0.065182,-0.876668,-0.024222379999999998,-0.0047912399999999996,-0.007586129999999999,1746801898960093
10.036234,-0.06697600000000001,-0.830622,-0.02448856,-0.004525059999999999,-0.007719219999999999,1746801918932273
10.033244,-0.055614000000000004,-0.824642,-0.025154009999999997,-0.00465815,-0.00718686,1746801938904633
10.035038,-0.039468,-0.851552,-0.02502092,-0.0053235999999999995,-0.006920679999999999,1746801958877013
10.017696,-0.048438,-0.849758,-0.02369002,-0.0047912399999999996,-0.00718686,1746801978849413
10.018294000000001,-0.044252,-0.841386,-0.024754739999999997,-0.004391969999999999,-0.00678759,1746801998821613
10.041018,-0.057408,-0.878462,-0.023823109999999998,-0.0047912399999999996,-0.007053769999999999,1746802018793693
10.029058000000001,-0.048438,-0.853346,-0.024222379999999998,-0.005456689999999999,-0.00678759,1746802038765933
10.021882,-0.057408,-0.825838,-0.02502092,-0.00519051,-0.007719219999999999,1746802058738213
10.02846,-0.052624000000000004,-0.84916,-0.02408929,-0.00519051,-0.0079854,1746802078710573
10.036832,-0.07774,-0.824642,-0.023956199999999997,-0.00465815,-0.007453039999999999,1746802098682913
10.033244,-0.056212,-0.842582,-0.023956199999999997,-0.004391969999999999,-0.00718686,1746802118655313
10.039822000000001,-0.062192,-0.838396,-0.023956199999999997,-0.005456689999999999,-0.00785231,1746802138627473
10.012912,-0.060996,-0.83122,-0.024355469999999997,-0.00505742,-0.006920679999999999,1746802158599773
10.021284,-0.068172,-0.862914,-0.023823109999999998,-0.005456689999999999,-0.0079854,1746802178572133
10.020686,-0.064584,-0.839592,-0.024754739999999997,-0.0053235999999999995,-0.00785231,1746802198544373
10.03444,-0.066378,-0.849758,-0.023956199999999997,-0.00519051,-0.006920679999999999,1746802218516853
10.030254,-0.069368,-0.861718,-0.024754739999999997,-0.00465815,-0.00785231,1746801239489153
10.044606,-0.056212,-0.8264360000000001,-0.025287099999999996,-0.00412579,-0.007586129999999999,1746801259461493
10.018892,-0.049634,-0.8527480000000001,-0.024222379999999998,-0.00519051,-0.007053769999999999,1746801279433973
10.03444,-0.061594,-0.841386,-0.024887829999999996,-0.00465815,-0.007053769999999999,1746801299406433
10.036832,-0.053222,-0.84916,-0.02369002,-0.005456689999999999,-0.006654499999999999,1746801319378693
10.023078,-0.060398,-0.84318,-0.02448856,-0.004525059999999999,-0.006521409999999999,1746801339350993
10.021882,-0.058006,-0.845572,-0.02448856,-0.00572287,-0.006521409999999999,1746801359323273
10.032646,-0.052026,-0.836602,-0.02448856,-0.005989049999999999,-0.007053769999999999,1746801379295453
10.038028,-0.061594,-0.854542,-0.023823109999999998,-0.00519051,-0.007053769999999999,1746801399267873
10.030254,-0.05681,-0.82823,-0.02462165,-0.004391969999999999,-0.00785231,1746801419240233
10.018294000000001,-0.065182,-0.83421,-0.024222379999999998,-0.00412579,-0.00678759,1746801439212593
10.018892,-0.054418,-0.850954,-0.024754739999999997,-0.00465815,-0.006521409999999999,1746801459184913
10.035038,-0.065182,-0.8473660000000001,-0.02462165,-0.004525059999999999,-0.0058559599999999995,1746801479157253
10.014108,-0.058006,-0.842582,-0.02502092,-0.004525059999999999,-0.007453039999999999,1746801499129493
10.015902,-0.049036,-0.8372,-0.023956199999999997,-0.0053235999999999995,-0.007453039999999999,1746801519101753
10.02846,-0.0598,-0.836004,-0.024355469999999997,-0.00519051,-0.006920679999999999,1746801539074153
10.021284,-0.053222,-0.8210540000000001,-0.024754739999999997,-0.00412579,-0.006521409999999999,1746801559046713
10.027862,-0.064584,-0.836602,-0.025553279999999998,-0.004525059999999999,-0.0058559599999999995,1746801579019013
10.024274,-0.05681,-0.842582,-0.02448856,-0.004525059999999999,-0.00718686,1746801598991213
10.029656,-0.066378,-0.840788,-0.025154009999999997,-0.00505742,-0.007053769999999999,1746801618963413
10.026068,-0.060996,-0.846768,-0.02448856,-0.005589779999999999,-0.007053769999999999,1746801638935753
10.035636,-0.041262,-0.86112,-0.02369002,-0.004525059999999999,-0.00625523,1746801658908253
10.026068,-0.05382,-0.846768,-0.02448856,-0.0039927,-0.006654499999999999,1746801678880653
10.027264,-0.062192,-0.869492,-0.02448856,-0.0047912399999999996,-0.007453039999999999,1746801698853053
10.030852,-0.054418,-0.8736780000000001,-0.024222379999999998,-0.0058559599999999995,-0.0073199499999999995,1746801718825293
10.026068,-0.057408,-0.835406,-0.02462165,-0.0053235999999999995,-0.006920679999999999,1746801738797473
10.029656,-0.063986,-0.839592,-0.02462165,-0.005456689999999999,-0.006654499999999999,1746801758769633
10.01949,-0.062192,-0.851552,-0.02462165,-0.0047912399999999996,-0.007586129999999999,1746801778742033
10.017098,-0.058006,-0.83421,-0.024355469999999997,-0.004525059999999999,-0.008118489999999999,1746801798714393
10.020686,-0.049036,-0.8581300000000001,-0.025154009999999997,-0.00465815,-0.00851776,1746801818686533
10.024872,-0.069966,-0.840788,-0.024754739999999997,-0.00425888,-0.007719219999999999,1746801838658853
10.017098,-0.05681,-0.8635120000000001,-0.024222379999999998,-0.00519051,-0.006920679999999999,1746801858631073
10.02248,-0.054418,-0.859924,-0.02408929,-0.004525059999999999,-0.007453039999999999,1746801878603393
10.01052,-0.063388,-0.844974,-0.023956199999999997,-0.004391969999999999,-0.007053769999999999,1746801898575673
10.033244,-0.059202,-0.827632,-0.024222379999999998,-0.00505742,-0.007586129999999999,1746801918547873
10.03145,-0.069368,-0.864708,-0.02369002,-0.0047912399999999996,-0.007053769999999999,1746801938520213
10.026666,-0.078338,-0.838994,-0.023556929999999997,-0.004391969999999999,-0.006388319999999999,1746801958492673
10.020686,-0.064584,-0.8419840000000001,-0.025154009999999997,-0.00465815,-0.00612214,1746801978464933
10.0165,-0.064584,-0.8527480000000001,-0.02408929,-0.004924329999999999,-0.007453039999999999,1746801998437253
10.023676,-0.060398,-0.84019,-0.024355469999999997,-0.0058559599999999995,-0.0073199499999999995,1746802018409633
10.03145,-0.05681,-0.858728,-0.024754739999999997,-0.004924329999999999,-0.00718686,1746802038381773
10.032048,-0.060398,-0.844376,-0.02448856,-0.0047912399999999996,-0.008783939999999999,1746802058354013
10.020686,-0.056212,-0.845572,-0.02448856,-0.00572287,-0.006388319999999999,1746802078326353
10.029058000000001,-0.05382,-0.850954,-0.025287099999999996,-0.00572287,-0.00612214,1746802098298493
10.024274,-0.065182,-0.856934,-0.025287099999999996,-0.00505742,-0.006920679999999999,1746802118270713
10.03444,-0.050232,-0.859924,-0.023823109999999998,-0.00572287,-0.00785231,1746802138243033
10.030254,-0.055614000000000004,-0.86112,-0.023823109999999998,-0.00572287,-0.006654499999999999,1746802158215313
10.014706,-0.077142,-0.83421,-0.02448856,-0.00465815,-0.007719219999999999,1746802178187573
10.02846,-0.062192,-0.85215,-0.02462165,-0.00465815,-0.006920679999999999,1746802198159673
10.02547,-0.057408,-0.862914,-0.02408929,-0.00505742,-0.007719219999999999,1746802218131853
10.01351,-0.060398,-0.85215,-0.024355469999999997,-0.004525059999999999,-0.007719219999999999,1746801239104133
10.042214,-0.049036,-0.853944,-0.02448856,-0.00505742,-0.00891703,1746801259076413
10.036832,-0.046644,-0.857532,-0.023956199999999997,-0.0037265199999999997,-0.007586129999999999,1746801279048573
10.030254,-0.054418,-0.862914,-0.02462165,-0.00519051,-0.00678759,1746801299020653
10.045204,-0.058604,-0.838396,-0.024754739999999997,-0.00425888,-0.007053769999999999,1746801318992793
10.023676,-0.058604,-0.865306,-0.02542019,-0.00505742,-0.00718686,1746801338965053
10.038626,-0.059202,-0.853944,-0.024355469999999997,-0.00519051,-0.007053769999999999,1746801358937293
10.014706,-0.0598,-0.848562,-0.02408929,-0.004924329999999999,-0.006920679999999999,1746801378909673
10.012912,-0.066378,-0.827632,-0.023823109999999998,-0.0047912399999999996,-0.006654499999999999,1746801398881973
10.02248,-0.056212,-0.865904,-0.024754739999999997,-0.0047912399999999996,-0.007586129999999999,1746801418854253
10.017098,-0.049634,-0.856934,-0.02462165,-0.005456689999999999,-0.007053769999999999,1746801438826473
10.024872,-0.071162,-0.84318,-0.02448856,-0.0053235999999999995,-0.006388319999999999,1746801458798813
10.017098,-0.060996,-0.845572,-0.023956199999999997,-0.00505742,-0.005989049999999999,1746801478771053
10.023676,-0.056212,-0.833014,-0.02408929,-0.00505742,-0.0073199499999999995,1746801498743293
10.023676,-0.063388,-0.847964,-0.024355469999999997,-0.0039927,-0.006920679999999999,1746801518715533
10.01351,-0.063986,-0.853944,-0.023956199999999997,-0.004391969999999999,-0.006920679999999999,1746801538687733
10.039822000000001,-0.058604,-0.823446,-0.024222379999999998,-0.00505742,-0.00612214,1746801558659953
10.030852,-0.046644,-0.8527480000000001,-0.02448856,-0.00505742,-0.007053769999999999,1746801578632133
10.032646,-0.05382,-0.833612,-0.024754739999999997,-0.0047912399999999996,-0.00678759,1746801598604253
10.024274,-0.0598,-0.842582,-0.02462165,-0.004924329999999999,-0.00678759,1746801618576593
10.02547,-0.057408,-0.861718,-0.02448856,-0.00505742,-0.007586129999999999,1746801638548853
10.01949,-0.064584,-0.855738,-0.023956199999999997,-0.004924329999999999,-0.0079854,1746801658521073
10.04341,-0.060398,-0.828828,-0.024222379999999998,-0.0047912399999999996,-0.007053769999999999,1746801678493393
10.035038,-0.052624000000000004,-0.854542,-0.02448856,-0.00519051,-0.007053769999999999,1746801698465733
10.026666,-0.05681,-0.844974,-0.023823109999999998,-0.00505742,-0.007586129999999999,1746801718437993
10.018294000000001,-0.064584,-0.855738,-0.02408929,-0.0058559599999999995,-0.007586129999999999,1746801738410373
10.03145,-0.071162,-0.853346,-0.02448856,-0.004924329999999999,-0.00678759,1746801758382653
10.029656,-0.05083,-0.847964,-0.023823109999999998,-0.004924329999999999,-0.00678759,1746801778355013
10.029058000000001,-0.074152,-0.844974,-0.024355469999999997,-0.0047912399999999996,-0.006521409999999999,1746801798327353
10.023078,-0.061594,-0.855738,-0.024355469999999997,-0.00519051,-0.007053769999999999,1746801818299673
10.023078,-0.065182,-0.837798,-0.024355469999999997,-0.00465815,-0.006654499999999999,1746801838271933
10.030852,-0.059202,-0.845572,-0.024222379999999998,-0.005589779999999999,-0.0073199499999999995,1746801858244293
10.005736,-0.054418,-0.856934,-0.02448856,-0.005456689999999999,-0.0079854,1746801878216553
10.015902,-0.058604,-0.833612,-0.024754739999999997,-0.00505742,-0.006920679999999999,1746801898188933
10.01351,-0.052624000000000004,-0.84318,-0.02448856,-0.00425888,-0.007453039999999999,1746801918161213
10.015902,-0.043056,-0.836602,-0.024754739999999997,-0.00425888,-0.007586129999999999,1746801938133593
10.01351,-0.0598,-0.838994,-0.025553279999999998,-0.00465815,-0.007053769999999999,1746801958105873
10.026068,-0.045448,-0.855738,-0.025553279999999998,-0.005456689999999999,-0.007053769999999999,1746801978078093
10.029656,-0.040664,-0.856336,-0.02408929,-0.00465815,-0.00718686,1746801998050453
10.03444,-0.061594,-0.851552,-0.024222379999999998,-0.00465815,-0.006388319999999999,1746802018022873
10.014706,-0.065182,-0.844376,-0.024222379999999998,-0.004391969999999999,-0.00718686,1746802037995333
10.02248,-0.044252,-0.85215,-0.024355469999999997,-0.00505742,-0.0093163,1746802057967913
10.026666,-0.05382,-0.84916,-0.024887829999999996,-0.0053235999999999995,-0.0073199499999999995,1746802077940273
10.01351,-0.054418,-0.861718,-0.024754739999999997,-0.004525059999999999,-0.006388319999999999,1746802097912493
10.01949,-0.065182,-0.856336,-0.02408929,-0.0053235999999999995,-0.008118489999999999,1746802117884873
10.023078,-0.04784,-0.847964,-0.02408929,-0.004525059999999999,-0.007719219999999999,1746802137857253
10.02846,-0.054418,-0.847964,-0.024355469999999997,-0.0047912399999999996,-0.006920679999999999,1746802157829653
10.030254,-0.047242,-0.850954,-0.02448856,-0.0053235999999999995,-0.0073199499999999995,1746802177801953
10.04042,-0.055016,-0.847964,-0.024887829999999996,-0.0053235999999999995,-0.00625523,1746802197774233
10.017098,-0.052026,-0.850356,-0.024887829999999996,-0.0039927,-0.00572287,1746802217746533
10.033842,-0.063986,-0.855738,-0.025154009999999997,-0.004924329999999999,-0.0073199499999999995,1746801238718833
10.023078,-0.063986,-0.834808,-0.024754739999999997,-0.005456689999999999,-0.006920679999999999,1746801258691153
10.023676,-0.057408,-0.84916,-0.02408929,-0.0053235999999999995,-0.0073199499999999995,1746801278663493
10.026068,-0.049036,-0.857532,-0.023423839999999998,-0.00505742,-0.007053769999999999,1746801298635813
10.030852,-0.060996,-0.850954,-0.02462165,-0.004391969999999999,-0.007053769999999999,1746801318608173
10.02547,-0.06877,-0.8318180000000001,-0.024887829999999996,-0.004391969999999999,-0.00678759,1746801338580393
10.017696,-0.049036,-0.849758,-0.025287099999999996,-0.00465815,-0.006654499999999999,1746801358552633
10.03145,-0.045448,-0.845572,-0.024754739999999997,-0.005589779999999999,-0.007053769999999999,1746801378524833
10.023078,-0.061594,-0.85514,-0.02462165,-0.004924329999999999,-0.007586129999999999,1746801398497193
10.015902,-0.063986,-0.853346,-0.023956199999999997,-0.004525059999999999,-0.006920679999999999,1746801418469453
10.007530000000001,-0.058604,-0.851552,-0.02408929,-0.004924329999999999,-0.0073199499999999995,1746801438441833
10.00454,-0.051428,-0.848562,-0.024887829999999996,-0.00519051,-0.007453039999999999,1746801458414093
10.02846,-0.059202,-0.84916,-0.024887829999999996,-0.0047912399999999996,-0.0073199499999999995,1746801478386473
10.03444,-0.053222,-0.84916,-0.025154009999999997,-0.00425888,-0.007453039999999999,1746801498358713
10.029656,-0.062192,-0.838994,-0.02542019,-0.004391969999999999,-0.006920679999999999,1746801518331073
10.026666,-0.06279,-0.865904,-0.024355469999999997,-0.00465815,-0.006920679999999999,1746801538303333
10.036832,-0.053222,-0.854542,-0.024887829999999996,-0.00519051,-0.00718686,1746801558275693
10.032646,-0.05382,-0.85215,-0.02502092,-0.004525059999999999,-0.006654499999999999,1746801578247913
10.01949,-0.043056,-0.84318,-0.02502092,-0.00425888,-0.007053769999999999,1746801598220213
10.032646,-0.04485,-0.818662,-0.02369002,-0.004525059999999999,-0.00718686,1746801618192533
10.024274,-0.060398,-0.854542,-0.023956199999999997,-0.0047912399999999996,-0.007586129999999999,1746801638164813
10.02846,-0.06697600000000001,-0.869492,-0.02502092,-0.005989049999999999,-0.00785231,1746801658137093
10.020686,-0.0598,-0.86112,-0.02502092,-0.004924329999999999,-0.008118489999999999,1746801678109253
10.027862,-0.047242,-0.850356,-0.02369002,-0.0053235999999999995,-0.0073199499999999995,1746801698081213
10.018294000000001,-0.055016,-0.850356,-0.024887829999999996,-0.004924329999999999,-0.007719219999999999,1746801718053493
10.021284,-0.045448,-0.85514,-0.024887829999999996,-0.004924329999999999,-0.0073199499999999995,1746801738025853
10.015304,-0.05681,-0.868296,-0.024887829999999996,-0.00505742,-0.007053769999999999,1746801757998153
10.03444,-0.071162,-0.81926,-0.02448856,-0.0038596099999999994,-0.006654499999999999,1746801777970453
10.029656,-0.063388,-0.86112,-0.024887829999999996,-0.004391969999999999,-0.00678759,1746801797942613
10.006932,-0.056212,-0.87009,-0.024355469999999997,-0.005456689999999999,-0.007053769999999999,1746801817914853
10.027264,-0.063986,-0.833014,-0.02462165,-0.00465815,-0.006654499999999999,1746801837887153
10.023676,-0.06877,-0.86112,-0.025287099999999996,-0.00505742,-0.00718686,1746801857859513
10.033244,-0.063986,-0.851552,-0.024887829999999996,-0.00519051,-0.007053769999999999,1746801877831953
10.02846,-0.054418,-0.874874,-0.024222379999999998,-0.005456689999999999,-0.006654499999999999,1746801897804273
10.026666,-0.059202,-0.8372,-0.023823109999999998,-0.00465815,-0.007053769999999999,1746801917776753
10.014706,-0.070564,-0.864708,-0.02408929,-0.0053235999999999995,-0.007586129999999999,1746801937749233
10.036234,-0.060398,-0.83421,-0.02502092,-0.00519051,-0.007453039999999999,1746801957721453
10.02846,-0.07475,-0.857532,-0.025154009999999997,-0.0053235999999999995,-0.00678759,1746801977693813
10.015902,-0.063986,-0.847964,-0.024355469999999997,-0.00465815,-0.0073199499999999995,1746801997666133
10.027862,-0.063388,-0.856934,-0.024222379999999998,-0.00505742,-0.00785231,1746802017638453
10.020088,-0.054418,-0.869492,-0.024355469999999997,-0.005456689999999999,-0.00718686,1746802037610713
10.029656,-0.070564,-0.847964,-0.02502092,-0.00519051,-0.007053769999999999,1746802057583013
10.026666,-0.049634,-0.85514,-0.025154009999999997,-0.004391969999999999,-0.00625523,1746802077555253
10.035636,-0.05083,-0.869492,-0.02408929,-0.0039927,-0.007053769999999999,1746802097527633
10.029656,-0.046046000000000004,-0.857532,-0.02462165,-0.0053235999999999995,-0.007586129999999999,1746802117500013
10.027264,-0.052026,-0.864708,-0.02448856,-0.004391969999999999,-0.0073199499999999995,1746802137472393
10.030852,-0.052026,-0.8671,-0.02408929,-0.004391969999999999,-0.00865085,1746802157444753
10.027264,-0.054418,-0.860522,-0.023823109999999998,-0.004391969999999999,-0.00851776,1746802177417153
10.027264,-0.054418,-0.84617,-0.02448856,-0.005589779999999999,-0.00785231,1746802197389473
10.021882,-0.060996,-0.829426,-0.02448856,-0.005456689999999999,-0.00785231,1746802217361793
10.02248,-0.06279,-0.82524,-0.024754739999999997,-0.0047912399999999996,-0.0073199499999999995,1746801238334113
10.024274,-0.055614000000000004,-0.8581300000000001,-0.024887829999999996,-0.00519051,-0.00718686,1746801258306373
10.018892,-0.060398,-0.844376,-0.024222379999999998,-0.004391969999999999,-0.006920679999999999,1746801278278613
10.041018,-0.06877,-0.848562,-0.023956199999999997,-0.0058559599999999995,-0.007453039999999999,1746801298250853
10.023078,-0.04485,-0.859924,-0.024887829999999996,-0.0047912399999999996,-0.0073199499999999995,1746801318223213
10.017696,-0.07176,-0.850356,-0.02408929,-0.00505742,-0.0073199499999999995,1746801338195593
10.023676,-0.049634,-0.869492,-0.02542019,-0.0053235999999999995,-0.007719219999999999,1746801358168013
10.036832,-0.043056,-0.854542,-0.024754739999999997,-0.00519051,-0.007719219999999999,1746801378140433
10.017098,-0.060398,-0.8473660000000001,-0.02462165,-0.0053235999999999995,-0.00785231,1746801398112753
10.029058000000001,-0.063388,-0.8318180000000001,-0.024355469999999997,-0.00505742,-0.00718686,1746801418085113
10.032048,-0.071162,-0.829426,-0.02289148,-0.005456689999999999,-0.007719219999999999,1746801438057453
10.024872,-0.071162,-0.82524,-0.02408929,-0.0047912399999999996,-0.00718686,1746801458029773
10.017696,-0.07953400000000001,-0.849758,-0.023956199999999997,-0.004924329999999999,-0.0073199499999999995,1746801478002093
10.03743,-0.057408,-0.856934,-0.02462165,-0.004525059999999999,-0.00718686,1746801497974313
10.02846,-0.065182,-0.839592,-0.02542019,-0.0038596099999999994,-0.005989049999999999,1746801517946473
10.02248,-0.053222,-0.86112,-0.02448856,-0.0038596099999999994,-0.00572287,1746801537918733
10.023676,-0.073554,-0.8635120000000001,-0.024222379999999998,-0.00425888,-0.0058559599999999995,1746801557890853
10.02846,-0.062192,-0.84916,-0.024222379999999998,-0.00465815,-0.006521409999999999,1746801577862973
10.023676,-0.055016,-0.85514,-0.02462165,-0.004924329999999999,-0.0079854,1746801597835353
10.014706,-0.050232,-0.8635120000000001,-0.024355469999999997,-0.0039927,-0.007719219999999999,1746801617807853
10.018892,-0.054418,-0.857532,-0.024754739999999997,-0.0053235999999999995,-0.007453039999999999,1746801637780193
10.017696,-0.061594,-0.853944,-0.02502092,-0.00465815,-0.007053769999999999,1746801657752513
10.030254,-0.07295600000000001,-0.845572,-0.024754739999999997,-0.0053235999999999995,-0.007586129999999999,1746801677724853
10.030254,-0.052624000000000004,-0.862316,-0.02408929,-0.00465815,-0.006521409999999999,1746801697697193
10.024872,-0.05083,-0.844974,-0.024222379999999998,-0.004924329999999999,-0.0073199499999999995,1746801717669513
10.02547,-0.063388,-0.841386,-0.023423839999999998,-0.00572287,-0.00851776,1746801737641753
10.029656,-0.0598,-0.84916,-0.02408929,-0.0047912399999999996,-0.007586129999999999,1746801757614073
10.029656,-0.06578,-0.853346,-0.024887829999999996,-0.005456689999999999,-0.006654499999999999,1746801777586333
10.017098,-0.053222,-0.84617,-0.02462165,-0.0053235999999999995,-0.006654499999999999,1746801797558533
10.02547,-0.05382,-0.86411,-0.024887829999999996,-0.005589779999999999,-0.0079854,1746801817530713
10.03145,-0.056212,-0.856336,-0.024355469999999997,-0.00505742,-0.0073199499999999995,1746801837502973
10.026666,-0.063986,-0.859326,-0.02408929,-0.00505742,-0.0073199499999999995,1746801857475213
10.02846,-0.058006,-0.860522,-0.02408929,-0.0047912399999999996,-0.0079854,1746801877447513
10.0165,-0.055614000000000004,-0.865306,-0.02408929,-0.005989049999999999,-0.00785231,1746801897419833
10.0165,-0.069966,-0.84318,-0.024754739999999997,-0.00465815,-0.00785231,1746801917392233
10.04042,-0.050232,-0.8581300000000001,-0.024754739999999997,-0.005456689999999999,-0.008118489999999999,1746801937364573
10.018892,-0.060996,-0.853944,-0.02462165,-0.00519051,-0.00625523,1746801957336853
10.024274,-0.067574,-0.85514,-0.024355469999999997,-0.00465815,-0.006521409999999999,1746801977309113
10.002148,-0.07475,-0.820456,-0.024222379999999998,-0.0053235999999999995,-0.007053769999999999,1746801997281313
10.027862,-0.063986,-0.880854,-0.025553279999999998,-0.005456689999999999,-0.006388319999999999,1746802017253533
10.026068,-0.057408,-0.860522,-0.024887829999999996,-0.00465815,-0.007453039999999999,1746802037225773
10.024872,-0.060996,-0.846768,-0.025952549999999998,-0.0038596099999999994,-0.00718686,1746802057197973
10.02846,-0.055614000000000004,-0.83421,-0.025154009999999997,-0.0058559599999999995,-0.00718686,1746802077170213
10.024274,-0.058006,-0.860522,-0.024355469999999997,-0.00625523,-0.006920679999999999,1746802097142533
10.033244,-0.06877,-0.84019,-0.02502092,-0.004391969999999999,-0.00678759,1746802117114853
10.03444,-0.0598,-0.865306,-0.025287099999999996,-0.004525059999999999,-0.007053769999999999,1746802137087253
10.024274,-0.065182,-0.853346,-0.024222379999999998,-0.00505742,-0.00612214,1746802157059593
10.02547,-0.0598,-0.847964,-0.025553279999999998,-0.0058559599999999995,-0.006654499999999999,1746802177031893
10.026666,-0.056212,-0.868894,-0.024887829999999996,-0.00519051,-0.00678759,1746802197004513
10.018294000000001,-0.048438,-0.836602,-0.02448856,-0.00425888,-0.006920679999999999,1746802216976813
10.02547,-0.052624000000000004,-0.8527480000000001,-0.024355469999999997,-0.00519051,-0.0073199499999999995,1746801237949153
10.021284,-0.045448,-0.844974,-0.02448856,-0.00572287,-0.007586129999999999,1746801257921273
10.024274,-0.046644,-0.830024,-0.024887829999999996,-0.0053235999999999995,-0.00718686,1746801277893513
10.03145,-0.059202,-0.844376,-0.02408929,-0.00519051,-0.006521409999999999,1746801297865933
10.009922,-0.062192,-0.828828,-0.025154009999999997,-0.004924329999999999,-0.007719219999999999,1746801317838233
10.033842,-0.070564,-0.841386,-0.025154009999999997,-0.00465815,-0.007586129999999999,1746801337810593
10.02846,-0.064584,-0.862316,-0.02502092,-0.00505742,-0.006521409999999999,1746801357782853
10.030254,-0.063388,-0.836602,-0.025287099999999996,-0.00505742,-0.007719219999999999,1746801377755573
10.033244,-0.069966,-0.865306,-0.025154009999999997,-0.004391969999999999,-0.007453039999999999,1746801397727733
10.032048,-0.0598,-0.865306,-0.02502092,-0.00465815,-0.007586129999999999,1746801417700133
10.042214,-0.072358,-0.83122,-0.025154009999999997,-0.00505742,-0.006920679999999999,1746801437672473
10.033842,-0.06279,-0.856336,-0.024355469999999997,-0.00519051,-0.006388319999999999,1746801457644793
10.024274,-0.055016,-0.850356,-0.02502092,-0.005456689999999999,-0.0073199499999999995,1746801477617213
10.021284,-0.058604,-0.841386,-0.02448856,-0.005456689999999999,-0.007453039999999999,1746801497589613
10.017696,-0.058006,-0.848562,-0.02448856,-0.004391969999999999,-0.00785231,1746801517561933
10.027264,-0.06279,-0.849758,-0.02448856,-0.00519051,-0.00718686,1746801537534233
10.038028,-0.06279,-0.8527480000000001,-0.02502092,-0.00519051,-0.00625523,1746801557506453
10.024872,-0.063986,-0.847964,-0.024887829999999996,-0.005589779999999999,-0.008118489999999999,1746801577478853
10.027862,-0.052026,-0.854542,-0.024355469999999997,-0.00465815,-0.0079854,1746801597451233
10.044606,-0.074152,-0.86411,-0.02448856,-0.005456689999999999,-0.006654499999999999,1746801617423633
10.024274,-0.05681,-0.850954,-0.023556929999999997,-0.0058559599999999995,-0.007719219999999999,1746801637395953
10.02547,-0.063388,-0.82823,-0.02502092,-0.00519051,-0.007586129999999999,1746801657368333
10.018294000000001,-0.055614000000000004,-0.845572,-0.02448856,-0.00519051,-0.007453039999999999,1746801677340673
10.027862,-0.049634,-0.8419840000000001,-0.023556929999999997,-0.0053235999999999995,-0.006920679999999999,1746801697313013
10.014706,-0.049036,-0.8527480000000001,-0.02502092,-0.00572287,-0.00718686,1746801717285313
10.039224,-0.055614000000000004,-0.825838,-0.023956199999999997,-0.004924329999999999,-0.007453039999999999,1746801737257733
10.02248,-0.06279,-0.838994,-0.023956199999999997,-0.00505742,-0.007719219999999999,1746801757230053
10.026666,-0.058604,-0.862316,-0.024887829999999996,-0.005456689999999999,-0.00718686,1746801777202253
10.01949,-0.067574,-0.840788,-0.025154009999999997,-0.00505742,-0.00718686,1746801797174633
10.02547,-0.073554,-0.847964,-0.02462165,-0.0047912399999999996,-0.0073199499999999995,1746801817147013
10.032048,-0.050232,-0.854542,-0.024355469999999997,-0.00519051,-0.006920679999999999,1746801837119033
10.027264,-0.061594,-0.861718,-0.024222379999999998,-0.00519051,-0.0079854,1746801857091373
10.030254,-0.056212,-0.846768,-0.025287099999999996,-0.00505742,-0.00825158,1746801877063613
10.030254,-0.052624000000000004,-0.820456,-0.025686369999999997,-0.00425888,-0.007586129999999999,1746801897035893
10.020686,-0.069368,-0.849758,-0.025154009999999997,-0.00465815,-0.006521409999999999,1746801917008973
10.023078,-0.057408,-0.8264360000000001,-0.023823109999999998,-0.0047912399999999996,-0.006920679999999999,1746801936981233
10.021882,-0.050232,-0.844974,-0.024222379999999998,-0.0047912399999999996,-0.007586129999999999,1746801956953513
10.035636,-0.054418,-0.843778,-0.02408929,-0.0058559599999999995,-0.00825158,1746801976925893
10.026666,-0.058006,-0.859924,-0.023956199999999997,-0.005456689999999999,-0.007053769999999999,1746801996898333
10.033842,-0.064584,-0.859924,-0.02369002,-0.00505742,-0.00785231,1746802016870293
10.032048,-0.060996,-0.847964,-0.02462165,-0.0053235999999999995,-0.007586129999999999,1746802036842833
10.021284,-0.073554,-0.8635120000000001,-0.02408929,-0.004525059999999999,-0.007053769999999999,1746802056815093
10.021882,-0.049634,-0.859326,-0.024355469999999997,-0.004924329999999999,-0.007053769999999999,1746802076787433
10.018892,-0.056212,-0.835406,-0.02448856,-0.00519051,-0.007053769999999999,1746802096759873
10.030254,-0.057408,-0.844376,-0.023423839999999998,-0.005456689999999999,-0.007719219999999999,1746802116732253
10.026068,-0.055016,-0.84916,-0.023823109999999998,-0.005589779999999999,-0.006654499999999999,1746802136704593
10.02547,-0.043056,-0.842582,-0.02502092,-0.00612214,-0.0073199499999999995,1746802156676893
10.020088,-0.043654,-0.853346,-0.025287099999999996,-0.00612214,-0.006920679999999999,1746802176649333
10.032646,-0.037674,-0.862316,-0.02408929,-0.00572287,-0.007586129999999999,1746802196621773
10.03145,-0.053222,-0.84617,-0.02408929,-0.005456689999999999,-0.0073199499999999995,1746802216594073
10.029058000000001,-0.052624000000000004,-0.851552,-0.024754739999999997,-0.005589779999999999,-0.008118489999999999,1746801237566373
10.027862,-0.052026,-0.85215,-0.02462165,-0.00425888,-0.00785231,1746801257538613
10.02547,-0.068172,-0.862316,-0.02448856,-0.0039927,-0.006920679999999999,1746801277510953
10.018294000000001,-0.063388,-0.865306,-0.024222379999999998,-0.00412579,-0.00718686,1746801297483113
10.012912,-0.068172,-0.846768,-0.024222379999999998,-0.00465815,-0.007053769999999999,1746801317455493
10.035636,-0.066378,-0.84916,-0.024222379999999998,-0.0047912399999999996,-0.006654499999999999,1746801337427873
10.021882,-0.059202,-0.853944,-0.024887829999999996,-0.00612214,-0.007453039999999999,1746801357400193
10.017098,-0.058006,-0.854542,-0.023823109999999998,-0.00425888,-0.006654499999999999,1746801377372353
10.032646,-0.0598,-0.807898,-0.024887829999999996,-0.004391969999999999,-0.00678759,1746801397344673
10.023676,-0.068172,-0.843778,-0.02408929,-0.00505742,-0.007053769999999999,1746801417316973
10.018892,-0.058604,-0.858728,-0.02408929,-0.004924329999999999,-0.0073199499999999995,1746801437289433
10.021882,-0.046046000000000004,-0.848562,-0.024754739999999997,-0.004924329999999999,-0.006920679999999999,1746801457261753
10.023078,-0.060996,-0.866502,-0.023823109999999998,-0.004924329999999999,-0.007053769999999999,1746801477234253
10.018892,-0.05681,-0.83421,-0.02462165,-0.00505742,-0.00678759,1746801497206713
10.0165,-0.063986,-0.841386,-0.024355469999999997,-0.0047912399999999996,-0.007453039999999999,1746801517179093
10.017696,-0.052026,-0.83122,-0.023956199999999997,-0.00412579,-0.007586129999999999,1746801537151473
10.039224,-0.055016,-0.83421,-0.023423839999999998,-0.00425888,-0.00718686,1746801557123173
10.02547,-0.052026,-0.821652,-0.02462165,-0.00359343,-0.00612214,1746801577095553
10.01949,-0.054418,-0.861718,-0.02448856,-0.0053235999999999995,-0.0073199499999999995,1746801597067953
10.023676,-0.060398,-0.866502,-0.024355469999999997,-0.005589779999999999,-0.00718686,1746801617040233
10.030852,-0.069368,-0.855738,-0.02408929,-0.004924329999999999,-0.0058559599999999995,1746801637012573
10.039224,-0.05382,-0.830622,-0.025154009999999997,-0.00465815,-0.00678759,1746801656984973
10.023078,-0.059202,-0.858728,-0.024355469999999997,-0.00465815,-0.006920679999999999,1746801676957073
10.021284,-0.060996,-0.851552,-0.024754739999999997,-0.004924329999999999,-0.0073199499999999995,1746801696929373
10.03145,-0.050232,-0.871286,-0.024355469999999997,-0.0039927,-0.007719219999999999,1746801716901693
10.030852,-0.0598,-0.845572,-0.023423839999999998,-0.004924329999999999,-0.00625523,1746801736874033
10.030852,-0.04186,-0.848562,-0.024887829999999996,-0.004391969999999999,-0.006388319999999999,1746801756846273
10.021284,-0.054418,-0.849758,-0.023024569999999998,-0.00425888,-0.0079854,1746801776818633
10.018892,-0.054418,-0.853346,-0.024355469999999997,-0.00425888,-0.00825158,1746801796790953
10.021882,-0.055614000000000004,-0.856336,-0.02502092,-0.004924329999999999,-0.007719219999999999,1746801816763433
10.023078,-0.049036,-0.839592,-0.024355469999999997,-0.00572287,-0.007053769999999999,1746801836735753
10.023078,-0.058006,-0.845572,-0.024355469999999997,-0.005456689999999999,-0.00718686,1746801856708073
10.036832,-0.058604,-0.842582,-0.02448856,-0.00465815,-0.00718686,1746801876680433
10.033244,-0.052624000000000004,-0.855738,-0.024754739999999997,-0.004924329999999999,-0.007719219999999999,1746801896652813
10.014706,-0.052624000000000004,-0.85514,-0.02448856,-0.0053235999999999995,-0.00678759,1746801916625133
10.02846,-0.061594,-0.8419840000000001,-0.023823109999999998,-0.0053235999999999995,-0.006521409999999999,1746801936597553
10.03145,-0.05681,-0.844376,-0.023556929999999997,-0.005589779999999999,-0.007586129999999999,1746801956569933
10.027862,-0.060996,-0.841386,-0.024754739999999997,-0.0058559599999999995,-0.00851776,1746801976542253
10.03444,-0.050232,-0.856934,-0.02462165,-0.0047912399999999996,-0.00825158,1746801996514713
10.032646,-0.06877,-0.834808,-0.025553279999999998,-0.0031941599999999997,-0.007586129999999999,1746802016487133
10.008128,-0.057408,-0.824642,-0.02462165,-0.00465815,-0.00718686,1746802036459473
10.012912,-0.06578,-0.858728,-0.024754739999999997,-0.005589779999999999,-0.0073199499999999995,1746802056431913
10.01949,-0.045448,-0.849758,-0.024754739999999997,-0.00625523,-0.007719219999999999,1746802076404133
10.02248,-0.046644,-0.849758,-0.02408929,-0.00425888,-0.0073199499999999995,1746802096376553
10.01351,-0.05083,-0.8419840000000001,-0.02408929,-0.0047912399999999996,-0.00785231,1746802116348693
10.035636,-0.060996,-0.850954,-0.023956199999999997,-0.0053235999999999995,-0.008118489999999999,1746802136321153
10.023078,-0.054418,-0.839592,-0.024222379999999998,-0.004924329999999999,-0.006920679999999999,1746802156293553
10.009922,-0.073554,-0.838994,-0.02502092,-0.00505742,-0.006521409999999999,1746802176265893
10.026666,-0.046046000000000004,-0.853944,-0.02408929,-0.0047912399999999996,-0.006521409999999999,1746802196238273
10.02547,-0.058604,-0.859326,-0.02408929,-0.005456689999999999,-0.007053769999999999,1746802216210513
10.039224,-0.070564,-0.83122,-0.02369002,-0.0047912399999999996,-0.007053769999999999,1746801237182773
10.024872,-0.056212,-0.862316,-0.024887829999999996,-0.00505742,-0.007719219999999999,1746801257155033
10.02248,-0.0598,-0.84617,-0.02502092,-0.00425888,-0.008384669999999999,1746801277127333
10.012314,-0.061594,-0.85215,-0.02408929,-0.005456689999999999,-0.0073199499999999995,1746801297099553
10.039822000000001,-0.063388,-0.847964,-0.02542019,-0.0058559599999999995,-0.006521409999999999,1746801317071913
10.020686,-0.07475,-0.858728,-0.02462165,-0.00465815,-0.006654499999999999,1746801337044273
10.020088,-0.073554,-0.8473660000000001,-0.024222379999999998,-0.0053235999999999995,-0.00678759,1746801357016713
10.033244,-0.0598,-0.86411,-0.024887829999999996,-0.00519051,-0.00678759,1746801376988973
10.032048,-0.050232,-0.839592,-0.024222379999999998,-0.004391969999999999,-0.007453039999999999,1746801396961273
10.02846,-0.052026,-0.8419840000000001,-0.024222379999999998,-0.00519051,-0.007453039999999999,1746801416933513
10.035038,-0.056212,-0.843778,-0.023956199999999997,-0.00465815,-0.006654499999999999,1746801436905853
10.032048,-0.05681,-0.838396,-0.023956199999999997,-0.004924329999999999,-0.00718686,1746801456877993
10.02846,-0.04485,-0.8473660000000001,-0.02462165,-0.0053235999999999995,-0.007453039999999999,1746801476850373
10.023676,-0.05083,-0.866502,-0.02448856,-0.004391969999999999,-0.0079854,1746801496822593
10.029058000000001,-0.055016,-0.8419840000000001,-0.025154009999999997,-0.00465815,-0.007453039999999999,1746801516794873
10.033244,-0.044252,-0.8419840000000001,-0.02448856,-0.004391969999999999,-0.006920679999999999,1746801536767413
10.045204,-0.05083,-0.833612,-0.024754739999999997,-0.00465815,-0.00785231,1746801556739713
10.032048,-0.046046000000000004,-0.865306,-0.02462165,-0.004525059999999999,-0.0073199499999999995,1746801576712273
10.026068,-0.052026,-0.849758,-0.024222379999999998,-0.00465815,-0.007586129999999999,1746801596684673
10.03145,-0.058604,-0.855738,-0.024754739999999997,-0.005456689999999999,-0.00785231,1746801616656993
10.015902,-0.060996,-0.84617,-0.024887829999999996,-0.0058559599999999995,-0.00718686,1746801636629393
10.027264,-0.05681,-0.855738,-0.02502092,-0.00612214,-0.0073199499999999995,1746801656601813
10.027264,-0.06279,-0.874874,-0.025287099999999996,-0.004525059999999999,-0.006521409999999999,1746801676574153
10.020088,-0.049634,-0.8527480000000001,-0.02542019,-0.00519051,-0.00718686,1746801696546513
10.029656,-0.06279,-0.882648,-0.02448856,-0.004924329999999999,-0.00718686,1746801716518953
10.042812,-0.0598,-0.84916,-0.025154009999999997,-0.005456689999999999,-0.0079854,1746801736491413
10.041616,-0.057408,-0.836602,-0.02448856,-0.00519051,-0.007719219999999999,1746801756463933
10.023078,-0.07475,-0.8419840000000001,-0.02448856,-0.004924329999999999,-0.007053769999999999,1746801776436333
10.020686,-0.05083,-0.830024,-0.025553279999999998,-0.00465815,-0.006521409999999999,1746801796408693
10.01351,-0.043056,-0.84019,-0.024887829999999996,-0.0047912399999999996,-0.00625523,1746801816381093
10.030852,-0.058604,-0.850954,-0.025287099999999996,-0.0053235999999999995,-0.007586129999999999,1746801836353393
10.005736,-0.052624000000000004,-0.841386,-0.025154009999999997,-0.0047912399999999996,-0.007586129999999999,1746801856325833
10.026666,-0.069368,-0.862316,-0.025686369999999997,-0.005456689999999999,-0.006920679999999999,1746801876298233
10.020686,-0.056212,-0.859924,-0.02448856,-0.00519051,-0.006654499999999999,1746801896270733
10.02248,-0.04784,-0.835406,-0.025553279999999998,-0.00425888,-0.00678759,1746801916243153
10.006334,-0.062192,-0.875472,-0.02408929,-0.004525059999999999,-0.005989049999999999,1746801936215613
10.023078,-0.055016,-0.842582,-0.02448856,-0.005456689999999999,-0.006388319999999999,1746801956188073
10.023676,-0.062192,-0.841386,-0.02462165,-0.004924329999999999,-0.007453039999999999,1746801976160373
10.020088,-0.057408,-0.841386,-0.023956199999999997,-0.005456689999999999,-0.00678759,1746801996132733
10.023078,-0.065182,-0.861718,-0.024222379999999998,-0.0053235999999999995,-0.00718686,1746802016105213
10.036234,-0.052026,-0.838396,-0.02408929,-0.00572287,-0.007453039999999999,1746802036077553
10.023676,-0.053222,-0.8372,-0.025553279999999998,-0.004525059999999999,-0.006654499999999999,1746802056049933
10.045802,-0.048438,-0.823446,-0.025952549999999998,-0.00412579,-0.00718686,1746802076022293
10.032048,-0.058006,-0.834808,-0.024887829999999996,-0.004391969999999999,-0.00678759,1746802095994753
10.027264,-0.071162,-0.8736780000000001,-0.023956199999999997,-0.00505742,-0.00678759,1746802115967073
10.036832,-0.071162,-0.842582,-0.02408929,-0.004924329999999999,-0.005989049999999999,1746802135939453
10.023078,-0.049036,-0.856934,-0.02462165,-0.004391969999999999,-0.007053769999999999,1746802155912093
10.030254,-0.063388,-0.874276,-0.02408929,-0.00425888,-0.00612214,1746802175884253
10.024274,-0.057408,-0.838994,-0.02408929,-0.0053235999999999995,-0.006654499999999999,1746802195856713
10.03145,-0.053222,-0.857532,-0.023556929999999997,-0.00519051,-0.0058559599999999995,1746802215828953
10.026666,-0.069966,-0.862316,-0.025154009999999997,-0.004924329999999999,-0.0073199499999999995,1746802235801153
10.02248,-0.054418,-0.851552,-0.024754739999999997,-0.004924329999999999,-0.007053769999999999,1746801256773613
10.01949,-0.046644,-0.854542,-0.02462165,-0.005589779999999999,-0.006388319999999999,1746801276745793
10.036832,-0.0598,-0.869492,-0.024222379999999998,-0.0058559599999999995,-0.00718686,1746801296718113
10.03743,-0.052026,-0.847964,-0.02462165,-0.00425888,-0.00718686,1746801316690533
10.026666,-0.053222,-0.8581300000000001,-0.02408929,-0.004525059999999999,-0.007453039999999999,1746801336662913
10.017098,-0.049634,-0.841386,-0.023823109999999998,-0.004924329999999999,-0.0073199499999999995,1746801356635413
10.029058000000001,-0.064584,-0.8635120000000001,-0.024754739999999997,-0.004525059999999999,-0.007719219999999999,1746801376607773
10.045802,-0.064584,-0.845572,-0.02502092,-0.004924329999999999,-0.006920679999999999,1746801396580713
10.024274,-0.050232,-0.840788,-0.02448856,-0.00519051,-0.00625523,1746801416552793
10.024872,-0.058006,-0.851552,-0.02542019,-0.005589779999999999,-0.0073199499999999995,1746801436525133
10.023078,-0.040066,-0.847964,-0.02542019,-0.00505742,-0.00718686,1746801456497553
10.017098,-0.046046000000000004,-0.843778,-0.02542019,-0.0038596099999999994,-0.006521409999999999,1746801476469973
10.017098,-0.062192,-0.859924,-0.025553279999999998,-0.004525059999999999,-0.00718686,1746801496442313
10.021284,-0.05382,-0.860522,-0.025154009999999997,-0.004391969999999999,-0.007453039999999999,1746801516414693
10.020088,-0.060996,-0.871286,-0.025553279999999998,-0.0047912399999999996,-0.007719219999999999,1746801536387053
10.03145,-0.06578,-0.857532,-0.02542019,-0.005589779999999999,-0.0073199499999999995,1746801556359373
10.030852,-0.06697600000000001,-0.853346,-0.023823109999999998,-0.0039927,-0.0073199499999999995,1746801576331613
10.021284,-0.053222,-0.8473660000000001,-0.024355469999999997,-0.00412579,-0.00718686,1746801596303953
10.038626,-0.052026,-0.8635120000000001,-0.02408929,-0.005456689999999999,-0.007453039999999999,1746801616276373
10.023676,-0.06578,-0.856336,-0.024222379999999998,-0.004924329999999999,-0.007053769999999999,1746801636248673
10.011716,-0.05681,-0.867698,-0.024355469999999997,-0.0047912399999999996,-0.00625523,1746801656220973
10.02846,-0.05083,-0.847964,-0.024222379999999998,-0.0037265199999999997,-0.006654499999999999,1746801676193353
10.029058000000001,-0.066378,-0.8635120000000001,-0.02369002,-0.00465815,-0.008118489999999999,1746801696165733
10.020686,-0.063388,-0.8581300000000001,-0.024355469999999997,-0.0047912399999999996,-0.006920679999999999,1746801716138133
10.02547,-0.06279,-0.848562,-0.02502092,-0.0047912399999999996,-0.00678759,1746801736110373
10.02846,-0.053222,-0.850954,-0.02408929,-0.004525059999999999,-0.00625523,1746801756082753
10.021284,-0.062192,-0.85514,-0.024222379999999998,-0.00425888,-0.00718686,1746801776055113
10.036234,-0.065182,-0.8318180000000001,-0.025154009999999997,-0.004525059999999999,-0.007719219999999999,1746801796027253
10.03145,-0.058604,-0.857532,-0.02448856,-0.00519051,-0.007053769999999999,1746801815999533
10.021284,-0.053222,-0.845572,-0.02408929,-0.00572287,-0.007453039999999999,1746801835971773
10.039224,-0.066378,-0.845572,-0.024887829999999996,-0.00519051,-0.006521409999999999,1746801855943973
10.032646,-0.068172,-0.85215,-0.02462165,-0.00519051,-0.005989049999999999,1746801875916333
10.029058000000001,-0.06697600000000001,-0.84318,-0.02462165,-0.0058559599999999995,-0.00625523,1746801895888633
10.021882,-0.058604,-0.849758,-0.026085639999999997,-0.004924329999999999,-0.00678759,1746801915861033
10.026068,-0.052026,-0.830024,-0.025287099999999996,-0.0047912399999999996,-0.007053769999999999,1746801935833333
10.011118,-0.069368,-0.844376,-0.02502092,-0.00572287,-0.00718686,1746801955805593
10.015902,-0.067574,-0.856336,-0.024222379999999998,-0.00519051,-0.0073199499999999995,1746801975777953
10.032646,-0.075946,-0.839592,-0.024355469999999997,-0.00465815,-0.00612214,1746801995750053
10.018294000000001,-0.06697600000000001,-0.868894,-0.024355469999999997,-0.00572287,-0.006920679999999999,1746802015722193
10.035038,-0.055614000000000004,-0.84318,-0.02542019,-0.005589779999999999,-0.007586129999999999,1746802035693813
10.026666,-0.05681,-0.836602,-0.02448856,-0.005456689999999999,-0.006920679999999999,1746802055666193
10.029656,-0.046046000000000004,-0.838396,-0.023823109999999998,-0.00465815,-0.007586129999999999,1746802075638433
10.026666,-0.071162,-0.822848,-0.02448856,-0.00465815,-0.00825158,1746802095610653
10.03444,-0.067574,-0.8473660000000001,-0.02448856,-0.004525059999999999,-0.0073199499999999995,1746802115582913
10.020686,-0.061594,-0.858728,-0.02502092,-0.00519051,-0.0079854,1746802135555233
10.017098,-0.063388,-0.835406,-0.02502092,-0.0053235999999999995,-0.00718686,1746802155527493
10.024872,-0.05681,-0.841386,-0.024754739999999997,-0.0047912399999999996,-0.006388319999999999,1746802175499653
10.015304,-0.065182,-0.827632,-0.025154009999999997,-0.004924329999999999,-0.006388319999999999,1746802195471893
10.03743,-0.05681,-0.857532,-0.025553279999999998,-0.004525059999999999,-0.00718686,1746802215444193
10.03145,-0.054418,-0.842582,-0.024355469999999997,-0.004924329999999999,-0.006920679999999999,1746802235416533
10.026666,-0.0598,-0.853944,-0.02502092,-0.00505742,-0.006654499999999999,1746801256388853
10.02846,-0.05681,-0.825838,-0.02408929,-0.004924329999999999,-0.007053769999999999,1746801276361133
10.018892,-0.052624000000000004,-0.86411,-0.024222379999999998,-0.00505742,-0.00718686,1746801296333393
10.03145,-0.073554,-0.868894,-0.02462165,-0.005456689999999999,-0.0079854,1746801316305713
10.023676,-0.04186,-0.862914,-0.02408929,-0.0053235999999999995,-0.007053769999999999,1746801336277993
10.02547,-0.055016,-0.838994,-0.02448856,-0.005989049999999999,-0.00678759,1746801356250393
10.023676,-0.063388,-0.854542,-0.023956199999999997,-0.00519051,-0.007053769999999999,1746801376222693
10.04042,-0.057408,-0.86112,-0.025287099999999996,-0.00505742,-0.007719219999999999,1746801396194933
10.015902,-0.056212,-0.847964,-0.02462165,-0.00425888,-0.00625523,1746801416167293
10.023676,-0.061594,-0.84019,-0.02448856,-0.00359343,-0.007453039999999999,1746801436139593
10.04042,-0.058006,-0.8527480000000001,-0.02448856,-0.0038596099999999994,-0.007453039999999999,1746801456111993
10.027264,-0.054418,-0.870688,-0.024887829999999996,-0.0047912399999999996,-0.00718686,1746801476084353
10.02547,-0.064584,-0.86411,-0.024754739999999997,-0.004391969999999999,-0.007453039999999999,1746801496056793
10.02248,-0.060398,-0.862316,-0.02502092,-0.004924329999999999,-0.00678759,1746801516029153
10.030254,-0.052624000000000004,-0.848562,-0.025154009999999997,-0.004391969999999999,-0.006521409999999999,1746801536001393
10.024274,-0.064584,-0.84617,-0.024355469999999997,-0.00505742,-0.006654499999999999,1746801555973793
10.024872,-0.06578,-0.86411,-0.023556929999999997,-0.00612214,-0.006654499999999999,1746801575946153
10.033842,-0.058604,-0.854542,-0.02448856,-0.0047912399999999996,-0.006920679999999999,1746801595918573
10.032048,-0.058006,-0.836602,-0.023823109999999998,-0.00519051,-0.00678759,1746801615890893
10.026666,-0.066378,-0.832416,-0.02462165,-0.005456689999999999,-0.00785231,1746801635863193
10.021882,-0.052026,-0.860522,-0.02448856,-0.0053235999999999995,-0.00851776,1746801655835573
10.035636,-0.055016,-0.8318180000000001,-0.024355469999999997,-0.00505742,-0.006920679999999999,1746801675807933
10.03444,-0.05382,-0.8527480000000001,-0.02369002,-0.00505742,-0.0073199499999999995,1746801695780293
10.02248,-0.064584,-0.837798,-0.02329075,-0.00412579,-0.006521409999999999,1746801715752653
10.020686,-0.055016,-0.86112,-0.023956199999999997,-0.004525059999999999,-0.007453039999999999,1746801735725013
10.030852,-0.047242,-0.859326,-0.02408929,-0.00505742,-0.007586129999999999,1746801755697453
10.03145,-0.052026,-0.862914,-0.023956199999999997,-0.005589779999999999,-0.006388319999999999,1746801775669853
10.033244,-0.065182,-0.85215,-0.024887829999999996,-0.005456689999999999,-0.007586129999999999,1746801795642233
10.007530000000001,-0.051428,-0.871884,-0.025154009999999997,-0.004525059999999999,-0.007453039999999999,1746801815614613
10.033842,-0.053222,-0.8318180000000001,-0.02448856,-0.00465815,-0.007453039999999999,1746801835586973
10.015304,-0.060398,-0.84916,-0.024222379999999998,-0.00519051,-0.006654499999999999,1746801855559553
10.015304,-0.061594,-0.847964,-0.02502092,-0.00412579,-0.00678759,1746801875531873
10.011716,-0.059202,-0.837798,-0.02448856,-0.004525059999999999,-0.007453039999999999,1746801895504233
10.023676,-0.06697600000000001,-0.835406,-0.023423839999999998,-0.00572287,-0.007453039999999999,1746801915476613
10.024274,-0.052624000000000004,-0.853944,-0.024222379999999998,-0.00519051,-0.007453039999999999,1746801935448993
10.01949,-0.04784,-0.851552,-0.023956199999999997,-0.0047912399999999996,-0.0073199499999999995,1746801955421553
10.023676,-0.065182,-0.864708,-0.025287099999999996,-0.0039927,-0.00785231,1746801975393993
10.01949,-0.06697600000000001,-0.857532,-0.024887829999999996,-0.00465815,-0.00785231,1746801995366293
10.018892,-0.058604,-0.858728,-0.024887829999999996,-0.00519051,-0.00718686,1746802015338733
10.01949,-0.062192,-0.861718,-0.02462165,-0.005456689999999999,-0.007053769999999999,1746802035311153
10.018294000000001,-0.056212,-0.861718,-0.024887829999999996,-0.005456689999999999,-0.00678759,1746802075256093
10.032646,-0.06877,-0.836602,-0.02462165,-0.0053235999999999995,-0.006521409999999999,1746802095228393
10.01052,-0.055016,-0.843778,-0.024754739999999997,-0.005989049999999999,-0.007719219999999999,1746802115200773
10.02248,-0.055016,-0.858728,-0.023556929999999997,-0.00465815,-0.007053769999999999,1746802135173113
10.027264,-0.04186,-0.84916,-0.02462165,-0.004924329999999999,-0.0079854,1746802155145573
10.02547,-0.056212,-0.853346,-0.02448856,-0.00519051,-0.0073199499999999995,1746802175117973
10.044606,-0.049634,-0.861718,-0.02448856,-0.00505742,-0.007053769999999999,1746802195090313
10.042812,-0.05382,-0.833014,-0.023823109999999998,-0.005589779999999999,-0.0079854,1746802215062693
10.03743,-0.043056,-0.851552,-0.023956199999999997,-0.00412579,-0.007719219999999999,1746802235035053
10.024872,-0.047242,-0.847964,-0.025287099999999996,-0.004525059999999999,-0.00678759,1746801256007433
10.015902,-0.046644,-0.84617,-0.024887829999999996,-0.00412579,-0.00718686,1746801275980013
10.038626,-0.07295600000000001,-0.833612,-0.02408929,-0.004391969999999999,-0.00718686,1746801295952433
10.030254,-0.050232,-0.862914,-0.024222379999999998,-0.00519051,-0.006654499999999999,1746801315924953
10.02846,-0.055614000000000004,-0.862914,-0.024355469999999997,-0.00572287,-0.007453039999999999,1746801335897293
10.030254,-0.058604,-0.8527480000000001,-0.02502092,-0.00519051,-0.00625523,1746801355869693
10.033244,-0.052624000000000004,-0.82823,-0.024754739999999997,-0.0053235999999999995,-0.007053769999999999,1746801375842313
10.029656,-0.06578,-0.853346,-0.024222379999999998,-0.005589779999999999,-0.006521409999999999,1746801395814633
10.01052,-0.05382,-0.847964,-0.024355469999999997,-0.00519051,-0.00678759,1746801415787073
10.02846,-0.063986,-0.848562,-0.025154009999999997,-0.00465815,-0.00718686,1746801435759453
10.012314,-0.060996,-0.844376,-0.02542019,-0.004525059999999999,-0.00718686,1746801455731893
10.003942,-0.071162,-0.857532,-0.02502092,-0.00519051,-0.007719219999999999,1746801475704293
10.036234,-0.058006,-0.859924,-0.02448856,-0.00519051,-0.008118489999999999,1746801495676433
10.029656,-0.048438,-0.839592,-0.024222379999999998,-0.005456689999999999,-0.00718686,1746801515648853
10.009324,-0.046644,-0.853346,-0.024754739999999997,-0.0047912399999999996,-0.00625523,1746801535621173
10.003942,-0.063388,-0.836602,-0.02462165,-0.0039927,-0.00678759,1746801555593493
10.027862,-0.060996,-0.848562,-0.025154009999999997,-0.004525059999999999,-0.007586129999999999,1746801575565873
10.012912,-0.052026,-0.8527480000000001,-0.023956199999999997,-0.00505742,-0.00612214,1746801595538073
10.017098,-0.053222,-0.850954,-0.02502092,-0.0047912399999999996,-0.007053769999999999,1746801615510433
10.024274,-0.059202,-0.830622,-0.025154009999999997,-0.0047912399999999996,-0.007719219999999999,1746801635482813
10.027862,-0.061594,-0.865306,-0.025154009999999997,-0.00465815,-0.007053769999999999,1746801655455293
10.030254,-0.050232,-0.8419840000000001,-0.025154009999999997,-0.0033272499999999995,-0.00785231,1746801675427613
10.021882,-0.05083,-0.84617,-0.02408929,-0.00465815,-0.00785231,1746801695399833
10.017098,-0.06877,-0.8671,-0.025287099999999996,-0.004391969999999999,-0.0079854,1746801715372113
10.026068,-0.05681,-0.8419840000000001,-0.02462165,-0.005456689999999999,-0.007453039999999999,1746801735344553
10.024872,-0.052026,-0.862914,-0.023956199999999997,-0.00465815,-0.007053769999999999,1746801755316953
10.0165,-0.057408,-0.858728,-0.024754739999999997,-0.00465815,-0.006654499999999999,1746801775289273
10.012912,-0.055614000000000004,-0.86411,-0.024222379999999998,-0.00425888,-0.00718686,1746801795261513
10.024274,-0.046644,-0.847964,-0.02448856,-0.00519051,-0.007586129999999999,1746801815233873
10.02547,-0.043056,-0.8372,-0.024887829999999996,-0.00572287,-0.007719219999999999,1746801835206233
10.015902,-0.060398,-0.85215,-0.02462165,-0.004525059999999999,-0.00785231,1746801855178633
10.026068,-0.063986,-0.874276,-0.02408929,-0.004924329999999999,-0.006920679999999999,1746801875151033
10.020686,-0.051428,-0.871286,-0.02369002,-0.00505742,-0.00678759,1746801895123453
10.020088,-0.057408,-0.864708,-0.025287099999999996,-0.00612214,-0.00718686,1746801915095673
10.03743,-0.06697600000000001,-0.848562,-0.023423839999999998,-0.00465815,-0.0079854,1746801935068033
10.014108,-0.065182,-0.856934,-0.02408929,-0.004924329999999999,-0.00785231,1746801955040313
10.018294000000001,-0.044252,-0.8419840000000001,-0.02542019,-0.004924329999999999,-0.006654499999999999,1746801975012733
10.02248,-0.052026,-0.843778,-0.02462165,-0.0047912399999999996,-0.006920679999999999,1746801994985113
10.018294000000001,-0.053222,-0.8635120000000001,-0.02542019,-0.0053235999999999995,-0.00718686,1746802014957253
10.02547,-0.054418,-0.8671,-0.024887829999999996,-0.0047912399999999996,-0.006388319999999999,1746802034929593
10.014108,-0.058006,-0.8581300000000001,-0.024222379999999998,-0.0047912399999999996,-0.006920679999999999,1746802054901833
10.026068,-0.046046000000000004,-0.843778,-0.025154009999999997,-0.00465815,-0.00851776,1746802074874273
10.039822000000001,-0.04784,-0.8527480000000001,-0.023956199999999997,-0.00465815,-0.007719219999999999,1746802094846633
10.018294000000001,-0.06279,-0.86411,-0.023556929999999997,-0.004391969999999999,-0.007719219999999999,1746802114819073
10.032048,-0.068172,-0.869492,-0.02408929,-0.00465815,-0.00718686,1746802134791533
10.03743,-0.06877,-0.856934,-0.024355469999999997,-0.0047912399999999996,-0.0058559599999999995,1746802154763893
10.015304,-0.048438,-0.853346,-0.02462165,-0.00505742,-0.005989049999999999,1746802174736393
10.030852,-0.039468,-0.850356,-0.02448856,-0.0053235999999999995,-0.006654499999999999,1746802194708853
10.042214,-0.058604,-0.838396,-0.023956199999999997,-0.00425888,-0.007719219999999999,1746802214681233
10.041018,-0.06279,-0.848562,-0.02408929,-0.004924329999999999,-0.00625523,1746802234653633
10.023676,-0.06697600000000001,-0.862914,-0.023157659999999997,-0.00505742,-0.006388319999999999,1746801255626033
10.035636,-0.060398,-0.84019,-0.024754739999999997,-0.00505742,-0.00825158,1746801275598433
10.027264,-0.06279,-0.84916,-0.024222379999999998,-0.00505742,-0.007719219999999999,1746801295570713
10.02846,-0.059202,-0.85215,-0.02462165,-0.004525059999999999,-0.006521409999999999,1746801315543153
10.015902,-0.0598,-0.842582,-0.025952549999999998,-0.004391969999999999,-0.006920679999999999,1746801335515533
10.041616,-0.06279,-0.851552,-0.02408929,-0.00505742,-0.0073199499999999995,1746801355488073
10.029058000000001,-0.06578,-0.854542,-0.024222379999999998,-0.00505742,-0.00718686,1746801375460413
10.02547,-0.0598,-0.853346,-0.025952549999999998,-0.00519051,-0.0073199499999999995,1746801395432833
10.029656,-0.06578,-0.853944,-0.024754739999999997,-0.004391969999999999,-0.006920679999999999,1746801415405233
10.015304,-0.065182,-0.84019,-0.02448856,-0.005456689999999999,-0.006920679999999999,1746801435377693
10.018294000000001,-0.075946,-0.859326,-0.02462165,-0.004924329999999999,-0.008118489999999999,1746801455350073
10.017696,-0.06578,-0.836602,-0.024754739999999997,-0.00519051,-0.0079854,1746801475322473
10.01949,-0.065182,-0.847964,-0.024754739999999997,-0.00519051,-0.00825158,1746801495294973
10.012912,-0.053222,-0.850954,-0.024222379999999998,-0.004525059999999999,-0.008118489999999999,1746801515267353
10.035636,-0.052624000000000004,-0.836602,-0.02448856,-0.005589779999999999,-0.007719219999999999,1746801535239733
10.026666,-0.067574,-0.847964,-0.02462165,-0.005456689999999999,-0.008118489999999999,1746801555212073
10.035038,-0.052624000000000004,-0.850954,-0.02462165,-0.00425888,-0.008118489999999999,1746801575184413
10.036832,-0.056212,-0.8581300000000001,-0.024887829999999996,-0.005456689999999999,-0.00718686,1746801595156773
10.021882,-0.058006,-0.84617,-0.02448856,-0.005456689999999999,-0.00718686,1746801615129093
10.026666,-0.06877,-0.841386,-0.02462165,-0.0047912399999999996,-0.007453039999999999,1746801635101433
10.035636,-0.063388,-0.8264360000000001,-0.023956199999999997,-0.004924329999999999,-0.006654499999999999,1746801655073853
10.027264,-0.054418,-0.82823,-0.02408929,-0.004525059999999999,-0.008118489999999999,1746801675046253
10.030852,-0.0598,-0.84617,-0.02448856,-0.00425888,-0.006920679999999999,1746801695018693
10.020686,-0.069368,-0.838994,-0.02329075,-0.00425888,-0.00678759,1746801714991093
10.005736,-0.060996,-0.833612,-0.02408929,-0.004924329999999999,-0.0093163,1746801734963473
10.018892,-0.065182,-0.8210540000000001,-0.02448856,-0.005456689999999999,-0.007586129999999999,1746801754935793
10.0165,-0.053222,-0.835406,-0.02408929,-0.0058559599999999995,-0.006654499999999999,1746801774908113
10.035038,-0.055016,-0.84019,-0.024355469999999997,-0.005456689999999999,-0.007053769999999999,1746801794880473
10.021284,-0.052624000000000004,-0.859326,-0.025287099999999996,-0.00465815,-0.006654499999999999,1746801814852833
10.017098,-0.051428,-0.854542,-0.024754739999999997,-0.004525059999999999,-0.006654499999999999,1746801834825213
10.03743,-0.055016,-0.8419840000000001,-0.02448856,-0.004924329999999999,-0.00785231,1746801854797633
10.02846,-0.056212,-0.841386,-0.02408929,-0.004924329999999999,-0.007719219999999999,1746801874770073
10.020686,-0.051428,-0.844376,-0.023956199999999997,-0.004924329999999999,-0.0073199499999999995,1746801894742453
10.014706,-0.06578,-0.850954,-0.024355469999999997,-0.00519051,-0.0073199499999999995,1746801914714813
10.02248,-0.06279,-0.821652,-0.02502092,-0.0047912399999999996,-0.00678759,1746801934687373
10.018892,-0.04784,-0.859924,-0.025154009999999997,-0.006388319999999999,-0.006388319999999999,1746801954659773
10.032646,-0.05083,-0.85514,-0.02542019,-0.005456689999999999,-0.006388319999999999,1746801974632173
10.015902,-0.072358,-0.867698,-0.024887829999999996,-0.00505742,-0.006654499999999999,1746801994604433
10.030254,-0.069966,-0.847964,-0.02448856,-0.0053235999999999995,-0.00718686,1746802014576853
10.035038,-0.059202,-0.85514,-0.02408929,-0.005456689999999999,-0.00785231,1746802034549173
10.044008,-0.056212,-0.842582,-0.024887829999999996,-0.00519051,-0.007719219999999999,1746802054521573
10.023676,-0.05382,-0.82524,-0.02448856,-0.00465815,-0.00678759,1746802074493993
10.036234,-0.0598,-0.856336,-0.025154009999999997,-0.00465815,-0.0079854,1746802094466413
10.015902,-0.047242,-0.843778,-0.024754739999999997,-0.005989049999999999,-0.006920679999999999,1746802114438833
10.030254,-0.05083,-0.843778,-0.025154009999999997,-0.00625523,-0.006654499999999999,1746802134411053
10.01949,-0.044252,-0.845572,-0.02542019,-0.0053235999999999995,-0.006654499999999999,1746802154383393
10.026068,-0.05681,-0.8473660000000001,-0.02408929,-0.0053235999999999995,-0.007453039999999999,1746802174355913
10.018294000000001,-0.056212,-0.823446,-0.024887829999999996,-0.00412579,-0.0079854,1746802194328353
10.030852,-0.059202,-0.844974,-0.023956199999999997,-0.00412579,-0.007586129999999999,1746802214300773
10.023676,-0.045448,-0.837798,-0.023823109999999998,-0.00425888,-0.007586129999999999,1746802234273193
10.027264,-0.052624000000000004,-0.838994,-0.024754739999999997,-0.005456689999999999,-0.00718686,1746801255245533
10.02248,-0.044252,-0.861718,-0.02462165,-0.00519051,-0.0073199499999999995,1746801275217933
10.02846,-0.058006,-0.8473660000000001,-0.024887829999999996,-0.004525059999999999,-0.007453039999999999,1746801295190293
10.020088,-0.047242,-0.8581300000000001,-0.024355469999999997,-0.004391969999999999,-0.006654499999999999,1746801315162733
10.02846,-0.078936,-0.839592,-0.024355469999999997,-0.005589779999999999,-0.007719219999999999,1746801335135133
10.026666,-0.058006,-0.8473660000000001,-0.024754739999999997,-0.00505742,-0.007053769999999999,1746801355107413
10.020686,-0.060398,-0.833014,-0.02462165,-0.005456689999999999,-0.006654499999999999,1746801375079793
10.030852,-0.06578,-0.85514,-0.024754739999999997,-0.00572287,-0.00678759,1746801395052353
10.032646,-0.06697600000000001,-0.869492,-0.02448856,-0.004924329999999999,-0.006920679999999999,1746801415024813
10.026068,-0.052624000000000004,-0.857532,-0.02502092,-0.0053235999999999995,-0.006388319999999999,1746801434997253
10.036832,-0.058006,-0.8419840000000001,-0.02542019,-0.00465815,-0.006388319999999999,1746801454969593
10.033244,-0.060996,-0.84916,-0.024754739999999997,-0.004391969999999999,-0.006388319999999999,1746801474941953
10.027264,-0.067574,-0.850954,-0.024887829999999996,-0.00465815,-0.006521409999999999,1746801494914433
10.03743,-0.0598,-0.8473660000000001,-0.02502092,-0.004924329999999999,-0.007586129999999999,1746801514886813
10.0165,-0.062192,-0.875472,-0.02448856,-0.0047912399999999996,-0.00678759,1746801534859173
10.030254,-0.056212,-0.860522,-0.025553279999999998,-0.00572287,-0.007053769999999999,1746801554831793
10.021284,-0.060996,-0.844974,-0.02542019,-0.0053235999999999995,-0.008384669999999999,1746801574803993
10.023078,-0.053222,-0.856336,-0.025287099999999996,-0.00519051,-0.00785231,1746801594776333
10.014706,-0.065182,-0.854542,-0.023956199999999997,-0.00572287,-0.007053769999999999,1746801614748813
10.024872,-0.049634,-0.86411,-0.025154009999999997,-0.0039927,-0.008118489999999999,1746801634721213
10.014706,-0.05382,-0.84916,-0.025553279999999998,-0.0047912399999999996,-0.00785231,1746801654693673
10.009922,-0.06697600000000001,-0.850356,-0.023556929999999997,-0.005456689999999999,-0.0073199499999999995,1746801674666073
10.032646,-0.055016,-0.842582,-0.024222379999999998,-0.004391969999999999,-0.007586129999999999,1746801694638453
10.023676,-0.059202,-0.85215,-0.023823109999999998,-0.004924329999999999,-0.00825158,1746801714610793
10.029058000000001,-0.066378,-0.865904,-0.024222379999999998,-0.00505742,-0.00825158,1746801734583133
10.032646,-0.063388,-0.8419840000000001,-0.02462165,-0.004924329999999999,-0.007719219999999999,1746801754555553
10.029058000000001,-0.064584,-0.843778,-0.02369002,-0.005456689999999999,-0.007053769999999999,1746801774527953
10.036234,-0.06279,-0.853944,-0.024355469999999997,-0.004924329999999999,-0.006920679999999999,1746801794500293
10.036234,-0.066378,-0.8473660000000001,-0.02462165,-0.005589779999999999,-0.007453039999999999,1746801814472453
10.021284,-0.066378,-0.8581300000000001,-0.024754739999999997,-0.005456689999999999,-0.007586129999999999,1746801834444793
10.008726,-0.06279,-0.851552,-0.024355469999999997,-0.004391969999999999,-0.007053769999999999,1746801854417233
10.024274,-0.040664,-0.834808,-0.02462165,-0.0053235999999999995,-0.006920679999999999,1746801874389633
10.036234,-0.054418,-0.8372,-0.02462165,-0.00425888,-0.007053769999999999,1746801894362113
10.041616,-0.049634,-0.846768,-0.024887829999999996,-0.0047912399999999996,-0.007053769999999999,1746801914334453
10.012314,-0.04784,-0.836602,-0.02369002,-0.00505742,-0.007453039999999999,1746801934306793
10.027862,-0.052026,-0.87607,-0.024887829999999996,-0.005989049999999999,-0.006521409999999999,1746801954279233
10.03145,-0.044252,-0.844974,-0.025686369999999997,-0.00505742,-0.007586129999999999,1746801974251633
10.027264,-0.056212,-0.8419840000000001,-0.025553279999999998,-0.00505742,-0.007053769999999999,1746801994224093
10.026068,-0.055016,-0.842582,-0.024887829999999996,-0.004391969999999999,-0.007586129999999999,1746802014196453
10.03145,-0.05681,-0.850954,-0.024355469999999997,-0.0047912399999999996,-0.00625523,1746802034168633
10.021882,-0.06697600000000001,-0.842582,-0.02408929,-0.005456689999999999,-0.006388319999999999,1746802054140973
10.027264,-0.060996,-0.836602,-0.023956199999999997,-0.00572287,-0.00718686,1746802074113453
10.036832,-0.050232,-0.855738,-0.023956199999999997,-0.0047912399999999996,-0.0073199499999999995,1746802094085993
10.030254,-0.055016,-0.853346,-0.023823109999999998,-0.0058559599999999995,-0.00825158,1746802114058433
10.033244,-0.043654,-0.833612,-0.023823109999999998,-0.005456689999999999,-0.0073199499999999995,1746802134030693
10.02248,-0.04784,-0.843778,-0.02462165,-0.005456689999999999,-0.007053769999999999,1746802154002993
10.032646,-0.062192,-0.849758,-0.025287099999999996,-0.00505742,-0.007586129999999999,1746802173975353
10.006932,-0.053222,-0.8581300000000001,-0.025287099999999996,-0.004924329999999999,-0.0079854,1746802193947593
10.024872,-0.05382,-0.848562,-0.024222379999999998,-0.005589779999999999,-0.007719219999999999,1746802213919993
10.018892,-0.064584,-0.834808,-0.024355469999999997,-0.005456689999999999,-0.007719219999999999,1746802233892373
10.026068,-0.06279,-0.8473660000000001,-0.02329075,-0.00572287,-0.007453039999999999,1746801254864753
10.042214,-0.06578,-0.8419840000000001,-0.02448856,-0.00412579,-0.007053769999999999,1746801274837173
10.017098,-0.060996,-0.833014,-0.024222379999999998,-0.00519051,-0.0079854,1746801294809593
10.026068,-0.071162,-0.8473660000000001,-0.02462165,-0.00505742,-0.00718686,1746801314782073
10.026666,-0.06578,-0.8527480000000001,-0.02408929,-0.005989049999999999,-0.007453039999999999,1746801334754553
10.033244,-0.06877,-0.862316,-0.023556929999999997,-0.004391969999999999,-0.00718686,1746801354726973
10.044606,-0.05681,-0.851552,-0.02542019,-0.005456689999999999,-0.007453039999999999,1746801374699433
10.026666,-0.064584,-0.8635120000000001,-0.023823109999999998,-0.00505742,-0.0073199499999999995,1746801394671853
10.011118,-0.071162,-0.829426,-0.024355469999999997,-0.004525059999999999,-0.006388319999999999,1746801414644273
10.033244,-0.06578,-0.84916,-0.025553279999999998,-0.0047912399999999996,-0.00785231,1746801434616713
10.023676,-0.062192,-0.87009,-0.024355469999999997,-0.00519051,-0.006920679999999999,1746801454589113
10.029656,-0.052026,-0.834808,-0.024222379999999998,-0.004391969999999999,-0.006388319999999999,1746801474561453
10.027862,-0.067574,-0.858728,-0.02462165,-0.0047912399999999996,-0.0073199499999999995,1746801494533793
10.018892,-0.058006,-0.84916,-0.024355469999999997,-0.00505742,-0.0073199499999999995,1746801514506233
10.02248,-0.06697600000000001,-0.848562,-0.025553279999999998,-0.0047912399999999996,-0.007053769999999999,1746801534478593
10.030852,-0.056212,-0.853944,-0.02448856,-0.00505742,-0.007719219999999999,1746801554451073
10.026068,-0.061594,-0.8527480000000001,-0.024222379999999998,-0.00505742,-0.00785231,1746801574423633
10.032048,-0.065182,-0.859924,-0.024754739999999997,-0.005589779999999999,-0.00851776,1746801594395913
10.026666,-0.059202,-0.84318,-0.02462165,-0.004525059999999999,-0.007586129999999999,1746801614368313
10.023078,-0.0598,-0.848562,-0.024887829999999996,-0.0038596099999999994,-0.00785231,1746801634340733
10.04939,-0.062192,-0.853346,-0.025686369999999997,-0.004391969999999999,-0.00718686,1746801654313193
10.021882,-0.056212,-0.851552,-0.024754739999999997,-0.005456689999999999,-0.006521409999999999,1746801674285693
10.02248,-0.056212,-0.871884,-0.025952549999999998,-0.00465815,-0.006654499999999999,1746801694258093
10.014108,-0.063388,-0.84019,-0.025154009999999997,-0.004525059999999999,-0.007053769999999999,1746801714230633
10.017696,-0.068172,-0.86411,-0.024222379999999998,-0.004525059999999999,-0.007586129999999999,1746801734202953
10.03444,-0.050232,-0.859924,-0.02462165,-0.0058559599999999995,-0.0073199499999999995,1746801754175373
10.018294000000001,-0.063986,-0.846768,-0.02408929,-0.0047912399999999996,-0.0073199499999999995,1746801774147793
10.027264,-0.063986,-0.850356,-0.024222379999999998,-0.00465815,-0.006920679999999999,1746801794120313
10.012314,-0.060398,-0.814476,-0.024887829999999996,-0.00505742,-0.0079854,1746801814092833
10.009922,-0.064584,-0.847964,-0.02542019,-0.00519051,-0.007053769999999999,1746801834065213
10.023078,-0.052624000000000004,-0.833612,-0.023823109999999998,-0.0047912399999999996,-0.006920679999999999,1746801854037653
10.006932,-0.06279,-0.842582,-0.02408929,-0.005456689999999999,-0.007586129999999999,1746801874010073
10.014706,-0.06279,-0.851552,-0.025287099999999996,-0.0053235999999999995,-0.00785231,1746801893982353
10.021882,-0.049036,-0.81627,-0.024222379999999998,-0.00465815,-0.008118489999999999,1746801913954613
10.024872,-0.074152,-0.812084,-0.02408929,-0.0047912399999999996,-0.00785231,1746801933926853
10.020686,-0.069368,-0.81627,-0.02448856,-0.005589779999999999,-0.007719219999999999,1746801953899313
10.024872,-0.049634,-0.825838,-0.024754739999999997,-0.00505742,-0.00785231,1746801973871673
10.0165,-0.04186,-0.853346,-0.024222379999999998,-0.0047912399999999996,-0.00785231,1746801993844073
10.024274,-0.060398,-0.8790600000000001,-0.024222379999999998,-0.00465815,-0.007586129999999999,1746802013816453
10.032048,-0.0598,-0.866502,-0.02462165,-0.00505742,-0.007453039999999999,1746802033788813
10.026068,-0.066378,-0.855738,-0.02408929,-0.0053235999999999995,-0.007453039999999999,1746802053761113
10.024872,-0.061594,-0.85215,-0.02502092,-0.005589779999999999,-0.0073199499999999995,1746802073733613
10.018892,-0.072358,-0.851552,-0.025154009999999997,-0.00505742,-0.0079854,1746802093706113
10.027862,-0.048438,-0.8264360000000001,-0.02408929,-0.004924329999999999,-0.007719219999999999,1746802113678633
10.027862,-0.046644,-0.855738,-0.02408929,-0.0039927,-0.006920679999999999,1746802133651053
10.033244,-0.05083,-0.836602,-0.024222379999999998,-0.00505742,-0.00718686,1746802153623413
10.02248,-0.059202,-0.850954,-0.02448856,-0.005456689999999999,-0.0073199499999999995,1746802173595773
10.03444,-0.055016,-0.850356,-0.024355469999999997,-0.00412579,-0.007453039999999999,1746802193568293
10.029058000000001,-0.063986,-0.830622,-0.024222379999999998,-0.00425888,-0.00612214,1746802213540713
10.027862,-0.06279,-0.841386,-0.024355469999999997,-0.0058559599999999995,-0.007053769999999999,1746802233513193
10.041018,-0.057408,-0.87308,-0.024355469999999997,-0.00572287,-0.0073199499999999995,1746801254485613
10.02248,-0.065182,-0.835406,-0.024355469999999997,-0.00505742,-0.00678759,1746801274457953
10.036832,-0.063388,-0.851552,-0.02462165,-0.0053235999999999995,-0.007586129999999999,1746801294430273
10.032048,-0.055614000000000004,-0.866502,-0.025154009999999997,-0.00505742,-0.00625523,1746801314402693
10.042214,-0.078338,-0.856336,-0.02542019,-0.005456689999999999,-0.006920679999999999,1746801334375173
10.029058000000001,-0.047242,-0.8581300000000001,-0.02502092,-0.00519051,-0.006521409999999999,1746801354347373
10.03444,-0.06697600000000001,-0.841386,-0.02369002,-0.0053235999999999995,-0.006920679999999999,1746801374319733
10.018892,-0.058006,-0.848562,-0.02462165,-0.005589779999999999,-0.00625523,1746801394292133
10.02846,-0.067574,-0.853346,-0.025686369999999997,-0.00519051,-0.00718686,1746801414264533
10.01351,-0.060398,-0.843778,-0.024754739999999997,-0.00519051,-0.007453039999999999,1746801434236833
10.011118,-0.061594,-0.84019,-0.025553279999999998,-0.00412579,-0.0073199499999999995,1746801454209053
10.024872,-0.069966,-0.865306,-0.025287099999999996,-0.00425888,-0.00718686,1746801474181473
10.036832,-0.058006,-0.839592,-0.02542019,-0.00505742,-0.006388319999999999,1746801514308145
10.030852,-0.05681,-0.849758,-0.02502092,-0.0047912399999999996,-0.0073199499999999995,1746801534280565
10.015304,-0.05083,-0.856934,-0.02502092,-0.0039927,-0.00678759,1746801554253125
10.03743,-0.068172,-0.846768,-0.02502092,-0.00425888,-0.007586129999999999,1746801574225705
10.008128,-0.06877,-0.836004,-0.023956199999999997,-0.005589779999999999,-0.00785231,1746801594198325
10.030254,-0.051428,-0.811486,-0.02408929,-0.00465815,-0.006920679999999999,1746801614170885
10.026666,-0.055614000000000004,-0.838994,-0.023956199999999997,-0.005456689999999999,-0.006920679999999999,1746801634143325
10.011716,-0.063388,-0.865904,-0.023956199999999997,-0.006388319999999999,-0.007053769999999999,1746801654115945
10.017098,-0.064584,-0.847964,-0.024754739999999997,-0.00505742,-0.00785231,1746801674088485
10.030852,-0.059202,-0.854542,-0.024887829999999996,-0.00465815,-0.006920679999999999,1746801694060965
10.024274,-0.043654,-0.835406,-0.02408929,-0.00519051,-0.00718686,1746801714033525
10.02846,-0.04186,-0.857532,-0.02462165,-0.00505742,-0.006654499999999999,1746801734006065
10.026068,-0.054418,-0.850954,-0.023956199999999997,-0.004924329999999999,-0.0079854,1746801753978645
10.035636,-0.051428,-0.837798,-0.02502092,-0.005456689999999999,-0.007053769999999999,1746801773951145
10.029058000000001,-0.063986,-0.8372,-0.025287099999999996,-0.004391969999999999,-0.0073199499999999995,1746801793924025
10.035038,-0.060398,-0.82823,-0.024754739999999997,-0.004924329999999999,-0.008118489999999999,1746801813896565
10.014108,-0.063388,-0.856336,-0.02448856,-0.005589779999999999,-0.006654499999999999,1746801833869085
10.017696,-0.058604,-0.859326,-0.023556929999999997,-0.0047912399999999996,-0.007586129999999999,1746801853841665
10.029656,-0.044252,-0.877864,-0.024754739999999997,-0.004525059999999999,-0.00718686,1746801873814145
10.026666,-0.049634,-0.85514,-0.023823109999999998,-0.004924329999999999,-0.006521409999999999,1746801893786825
10.021284,-0.05083,-0.833014,-0.02462165,-0.00412579,-0.006920679999999999,1746801913759505
10.026666,-0.047242,-0.838994,-0.02448856,-0.00612214,-0.0073199499999999995,1746801933732025
10.020088,-0.049634,-0.84617,-0.02369002,-0.00505742,-0.00785231,1746801953704645
10.041018,-0.055016,-0.871286,-0.024355469999999997,-0.0053235999999999995,-0.00718686,1746801973677145
10.020686,-0.04186,-0.84019,-0.024355469999999997,-0.00425888,-0.007053769999999999,1746801993649745
10.026666,-0.057408,-0.875472,-0.023823109999999998,-0.00465815,-0.007053769999999999,1746802013622265
10.02547,-0.053222,-0.851552,-0.024222379999999998,-0.00505742,-0.007053769999999999,1746802033594765
10.032048,-0.05382,-0.844376,-0.024754739999999997,-0.0058559599999999995,-0.00785231,1746802053567325
10.035636,-0.067574,-0.844974,-0.02502092,-0.0047912399999999996,-0.0073199499999999995,1746802073539865
10.021882,-0.055614000000000004,-0.859924,-0.02542019,-0.00505742,-0.006920679999999999,1746802093512365
10.015902,-0.063388,-0.837798,-0.02448856,-0.004924329999999999,-0.007053769999999999,1746802113484985
10.024872,-0.056212,-0.867698,-0.024754739999999997,-0.004391969999999999,-0.0079854,1746802133457685
10.035038,-0.060398,-0.864708,-0.02542019,-0.00519051,-0.0073199499999999995,1746802153430245
10.017696,-0.05681,-0.8473660000000001,-0.02369002,-0.004391969999999999,-0.0073199499999999995,1746802173402685
10.02547,-0.063986,-0.869492,-0.024222379999999998,-0.00425888,-0.0079854,1746802193374985
10.02248,-0.052624000000000004,-0.855738,-0.024222379999999998,-0.004924329999999999,-0.00785231,1746802213347485
10.015304,-0.055016,-0.84916,-0.024754739999999997,-0.00572287,-0.0073199499999999995,1746802233319945
10.027862,-0.065182,-0.855738,-0.02462165,-0.00625523,-0.006654499999999999,1746801254292525
10.018294000000001,-0.055016,-0.849758,-0.025154009999999997,-0.0047912399999999996,-0.008118489999999999,1746801274264985
10.021284,-0.047242,-0.848562,-0.024887829999999996,-0.00465815,-0.00785231,1746801294237285
10.01351,-0.053222,-0.837798,-0.024754739999999997,-0.00519051,-0.007053769999999999,1746801314209825
10.032048,-0.063388,-0.866502,-0.023956199999999997,-0.00465815,-0.0058559599999999995,1746801334182345
10.02846,-0.049036,-0.8419840000000001,-0.024222379999999998,-0.00572287,-0.007719219999999999,1746801354154825
10.012314,-0.055614000000000004,-0.836602,-0.02462165,-0.004391969999999999,-0.008384669999999999,1746801374127385
10.029058000000001,-0.069966,-0.853346,-0.02462165,-0.0037265199999999997,-0.00678759,1746801394099745
10.029058000000001,-0.051428,-0.84916,-0.02462165,-0.0039927,-0.00678759,1746801414072185
10.021882,-0.060398,-0.843778,-0.02502092,-0.0047912399999999996,-0.00785231,1746801434044245
10.029656,-0.04485,-0.872482,-0.02448856,-0.00465815,-0.00625523,1746801454016645
10.035038,-0.063986,-0.87009,-0.023024569999999998,-0.00425888,-0.00718686,1746801473989005
10.024274,-0.058604,-0.849758,-0.024754739999999997,-0.004525059999999999,-0.00678759,1746801493961425
10.017696,-0.05382,-0.8372,-0.024355469999999997,-0.004924329999999999,-0.00678759,1746801513933805
10.017098,-0.06279,-0.827632,-0.025287099999999996,-0.00505742,-0.00718686,1746801533905945
10.01949,-0.044252,-0.846768,-0.025154009999999997,-0.00505742,-0.007586129999999999,1746801553878225
10.024872,-0.05083,-0.844376,-0.025553279999999998,-0.004924329999999999,-0.006654499999999999,1746801573850625
10.026666,-0.051428,-0.840788,-0.024887829999999996,-0.00505742,-0.00718686,1746801593823065
10.00454,-0.055016,-0.8581300000000001,-0.02408929,-0.00505742,-0.00718686,1746801613795585
10.018294000000001,-0.063986,-0.842582,-0.024222379999999998,-0.0047912399999999996,-0.007453039999999999,1746801633768005
10.032646,-0.06279,-0.844974,-0.02369002,-0.00519051,-0.007053769999999999,1746801653740405
10.023676,-0.048438,-0.842582,-0.024754739999999997,-0.004391969999999999,-0.008118489999999999,1746801673712885
10.017098,-0.05681,-0.85215,-0.024754739999999997,-0.00519051,-0.0079854,1746801693685325
10.023078,-0.062192,-0.871286,-0.024355469999999997,-0.00505742,-0.007719219999999999,1746801713657905
10.03743,-0.057408,-0.8264360000000001,-0.023823109999999998,-0.006388319999999999,-0.0073199499999999995,1746801733630405
10.03444,-0.05382,-0.856934,-0.024222379999999998,-0.005456689999999999,-0.007053769999999999,1746801753602905
10.021284,-0.049634,-0.84318,-0.02369002,-0.005456689999999999,-0.007053769999999999,1746801773575345
10.030254,-0.055614000000000004,-0.85514,-0.025154009999999997,-0.00612214,-0.006654499999999999,1746801793547665
10.03145,-0.060996,-0.8581300000000001,-0.02462165,-0.005589779999999999,-0.00718686,1746801813520125
10.021882,-0.0598,-0.854542,-0.024754739999999997,-0.00625523,-0.0073199499999999995,1746801833492645
10.018294000000001,-0.064584,-0.850356,-0.024754739999999997,-0.0047912399999999996,-0.007053769999999999,1746801853464905
10.02248,-0.053222,-0.857532,-0.024754739999999997,-0.0053235999999999995,-0.006521409999999999,1746801873437365
10.033842,-0.055016,-0.851552,-0.02448856,-0.00519051,-0.007586129999999999,1746801893409745
10.017098,-0.072358,-0.8581300000000001,-0.024222379999999998,-0.004525059999999999,-0.007586129999999999,1746801913382245
10.024274,-0.067574,-0.853346,-0.02408929,-0.004924329999999999,-0.008118489999999999,1746801933354865
10.017098,-0.058604,-0.838396,-0.02408929,-0.005589779999999999,-0.007453039999999999,1746801953327245
10.011118,-0.0598,-0.876668,-0.02462165,-0.006388319999999999,-0.0073199499999999995,1746801973299665
10.015902,-0.06279,-0.8635120000000001,-0.024754739999999997,-0.005456689999999999,-0.00718686,1746801993272065
10.017696,-0.067574,-0.83421,-0.02448856,-0.0058559599999999995,-0.006521409999999999,1746802013244405
10.01949,-0.048438,-0.833612,-0.02462165,-0.00505742,-0.00825158,1746802033216845
10.03145,-0.069966,-0.855738,-0.02369002,-0.0053235999999999995,-0.007453039999999999,1746802053189225
10.014108,-0.046046000000000004,-0.82524,-0.024222379999999998,-0.004924329999999999,-0.007053769999999999,1746802073161605
10.026068,-0.05681,-0.843778,-0.023556929999999997,-0.00519051,-0.00625523,1746802093134185
10.026666,-0.060398,-0.8372,-0.02542019,-0.00505742,-0.0058559599999999995,1746802113106825
10.020088,-0.052026,-0.86112,-0.024754739999999997,-0.004525059999999999,-0.006654499999999999,1746802133079465
10.024274,-0.049634,-0.84318,-0.025154009999999997,-0.0053235999999999995,-0.007053769999999999,1746802153051965
10.035636,-0.060398,-0.84019,-0.024222379999999998,-0.00519051,-0.00678759,1746802173024505
10.023676,-0.066378,-0.83421,-0.025154009999999997,-0.00505742,-0.007453039999999999,1746802192996885
10.023078,-0.066378,-0.837798,-0.024887829999999996,-0.00519051,-0.00718686,1746802212969305
10.023676,-0.050232,-0.854542,-0.02502092,-0.0053235999999999995,-0.0073199499999999995,1746802232941705
10.017098,-0.055614000000000004,-0.84617,-0.025686369999999997,-0.00519051,-0.006654499999999999,1746801253914125
10.029058000000001,-0.062192,-0.837798,-0.024754739999999997,-0.005589779999999999,-0.00612214,1746801273886425
10.02846,-0.065182,-0.851552,-0.02462165,-0.00519051,-0.007719219999999999,1746801293858865
10.020686,-0.059202,-0.865306,-0.02329075,-0.0038596099999999994,-0.007719219999999999,1746801313831325
10.018294000000001,-0.064584,-0.836602,-0.023956199999999997,-0.0039927,-0.00625523,1746801333803745
10.01052,-0.057408,-0.85514,-0.023823109999999998,-0.004924329999999999,-0.00718686,1746801353775945
10.021284,-0.051428,-0.851552,-0.02369002,-0.00505742,-0.007719219999999999,1746801373748325
10.01949,-0.058604,-0.850356,-0.02408929,-0.005456689999999999,-0.008384669999999999,1746801393720685
10.017098,-0.06697600000000001,-0.859924,-0.023956199999999997,-0.004525059999999999,-0.007453039999999999,1746801413693145
10.017098,-0.06279,-0.84916,-0.02408929,-0.00519051,-0.007719219999999999,1746801433665645
10.012912,-0.070564,-0.844974,-0.023823109999999998,-0.0053235999999999995,-0.008118489999999999,1746801453637985
10.02846,-0.049634,-0.848562,-0.02408929,-0.0058559599999999995,-0.006521409999999999,1746801473610405
10.03444,-0.058604,-0.8372,-0.025154009999999997,-0.005589779999999999,-0.006388319999999999,1746801493582885
10.036234,-0.045448,-0.845572,-0.024754739999999997,-0.0053235999999999995,-0.00785231,1746801513555245
10.0165,-0.037076,-0.891618,-0.024222379999999998,-0.0047912399999999996,-0.007453039999999999,1746801533527605
10.014108,-0.04784,-0.860522,-0.02369002,-0.0039927,-0.007586129999999999,1746801553499845
10.02547,-0.057408,-0.844376,-0.02408929,-0.0053235999999999995,-0.0079854,1746801573472065
10.023078,-0.052026,-0.85514,-0.025553279999999998,-0.00572287,-0.006521409999999999,1746801593444445
10.038028,-0.064584,-0.858728,-0.024754739999999997,-0.00572287,-0.007453039999999999,1746801613416845
10.01949,-0.058006,-0.860522,-0.024754739999999997,-0.00465815,-0.007586129999999999,1746801633389265
10.009922,-0.062192,-0.82524,-0.024222379999999998,-0.0047912399999999996,-0.00625523,1746801653361785
10.021882,-0.065182,-0.8473660000000001,-0.02462165,-0.00465815,-0.007053769999999999,1746801673334205
10.015304,-0.062192,-0.857532,-0.02502092,-0.0047912399999999996,-0.007053769999999999,1746801693306605
10.018892,-0.048438,-0.846768,-0.024355469999999997,-0.005589779999999999,-0.007453039999999999,1746801713279185
10.021882,-0.05083,-0.844376,-0.024222379999999998,-0.0058559599999999995,-0.00678759,1746801733251545
10.012314,-0.058006,-0.850356,-0.024355469999999997,-0.005589779999999999,-0.005589779999999999,1746801753223885
10.011118,-0.057408,-0.835406,-0.024887829999999996,-0.00519051,-0.006521409999999999,1746801773196185
10.027862,-0.040664,-0.868296,-0.024754739999999997,-0.00505742,-0.006920679999999999,1746801793168605
10.036234,-0.046644,-0.868296,-0.023556929999999997,-0.0053235999999999995,-0.007586129999999999,1746801813141045
10.023078,-0.058604,-0.864708,-0.023823109999999998,-0.004525059999999999,-0.00678759,1746801833113505
10.017696,-0.040664,-0.854542,-0.024754739999999997,-0.0038596099999999994,-0.007453039999999999,1746801853086025
10.027264,-0.0598,-0.841386,-0.02462165,-0.00505742,-0.007719219999999999,1746801873058465
10.011716,-0.05681,-0.819858,-0.024887829999999996,-0.00425888,-0.00718686,1746801893030905
10.03444,-0.063986,-0.85514,-0.02462165,-0.00465815,-0.008118489999999999,1746801913003385
10.023078,-0.044252,-0.878462,-0.024887829999999996,-0.004924329999999999,-0.0073199499999999995,1746801932975805
10.033842,-0.051428,-0.853346,-0.02502092,-0.00505742,-0.0073199499999999995,1746801952948185
10.021284,-0.039468,-0.844974,-0.02462165,-0.00519051,-0.00718686,1746801972920645
10.026068,-0.052624000000000004,-0.8671,-0.02369002,-0.00519051,-0.00785231,1746801992893085
10.020088,-0.063388,-0.840788,-0.02369002,-0.004924329999999999,-0.00612214,1746802012865565
10.0165,-0.068172,-0.857532,-0.024222379999999998,-0.005589779999999999,-0.006388319999999999,1746802032838105
10.02547,-0.070564,-0.853944,-0.024355469999999997,-0.004525059999999999,-0.007053769999999999,1746802052810525
10.006932,-0.057408,-0.854542,-0.024887829999999996,-0.00505742,-0.008118489999999999,1746802072782945
10.026666,-0.06279,-0.853944,-0.025287099999999996,-0.00505742,-0.007053769999999999,1746802092755505
10.033842,-0.06578,-0.870688,-0.024754739999999997,-0.00465815,-0.005989049999999999,1746802112727965
10.030254,-0.04784,-0.8419840000000001,-0.024887829999999996,-0.00519051,-0.006388319999999999,1746802132700525
10.023676,-0.058006,-0.857532,-0.024887829999999996,-0.00412579,-0.00612214,1746802152672985
10.0165,-0.063388,-0.8671,-0.024887829999999996,-0.00519051,-0.00785231,1746802172645445
10.012912,-0.070564,-0.86112,-0.024887829999999996,-0.00505742,-0.0079854,1746802192618045
10.026068,-0.05083,-0.841386,-0.024754739999999997,-0.00519051,-0.007586129999999999,1746802212590605
10.027862,-0.055016,-0.85514,-0.02462165,-0.00612214,-0.007719219999999999,1746802232563065
10.029058000000001,-0.055614000000000004,-0.8419840000000001,-0.024754739999999997,-0.005456689999999999,-0.007053769999999999,1746801253535565
10.020088,-0.059202,-0.850356,-0.024887829999999996,-0.0053235999999999995,-0.0079854,1746801273508025
10.029656,-0.059202,-0.867698,-0.024222379999999998,-0.00519051,-0.007053769999999999,1746801293480505
10.018892,-0.052624000000000004,-0.853944,-0.024754739999999997,-0.0053235999999999995,-0.006388319999999999,1746801313452985
10.02547,-0.065182,-0.832416,-0.02408929,-0.004924329999999999,-0.006654499999999999,1746801333425505
10.026068,-0.081926,-0.859326,-0.02462165,-0.0047912399999999996,-0.0079854,1746801353397825
10.01949,-0.070564,-0.855738,-0.02448856,-0.00465815,-0.007719219999999999,1746801373370165
10.029656,-0.068172,-0.859924,-0.024887829999999996,-0.00505742,-0.00718686,1746801393342545
10.026068,-0.054418,-0.87308,-0.023956199999999997,-0.0053235999999999995,-0.007719219999999999,1746801413314925
10.015902,-0.051428,-0.8736780000000001,-0.02369002,-0.00572287,-0.00678759,1746801433287325
10.03145,-0.054418,-0.8318180000000001,-0.02408929,-0.00465815,-0.00785231,1746801453259805
10.032048,-0.058604,-0.843778,-0.02369002,-0.005456689999999999,-0.007453039999999999,1746801473232285
10.02547,-0.059202,-0.837798,-0.023157659999999997,-0.004924329999999999,-0.006920679999999999,1746801493204645
10.041616,-0.07295600000000001,-0.843778,-0.023956199999999997,-0.0047912399999999996,-0.006388319999999999,1746801513177065
10.041018,-0.062192,-0.845572,-0.024222379999999998,-0.005456689999999999,-0.0073199499999999995,1746801533149505
10.02846,-0.045448,-0.857532,-0.02448856,-0.005589779999999999,-0.007453039999999999,1746801553122045
10.018294000000001,-0.060996,-0.850954,-0.023956199999999997,-0.004525059999999999,-0.0073199499999999995,1746801573094505
10.026666,-0.063388,-0.84019,-0.023956199999999997,-0.00505742,-0.006920679999999999,1746801593067025
10.033244,-0.06697600000000001,-0.845572,-0.023956199999999997,-0.00412579,-0.0079854,1746801613039405
10.012314,-0.060398,-0.883246,-0.024355469999999997,-0.004924329999999999,-0.007586129999999999,1746801633011945
10.02248,-0.060398,-0.853944,-0.024222379999999998,-0.0047912399999999996,-0.006920679999999999,1746801652984365
10.032048,-0.060398,-0.83421,-0.02502092,-0.00519051,-0.006388319999999999,1746801672956685
10.035636,-0.06697600000000001,-0.83421,-0.025154009999999997,-0.004924329999999999,-0.006521409999999999,1746801692929245
10.021284,-0.060398,-0.8473660000000001,-0.025553279999999998,-0.0047912399999999996,-0.0079854,1746801712901725
10.039822000000001,-0.051428,-0.866502,-0.023956199999999997,-0.00465815,-0.007586129999999999,1746801732874125
10.023078,-0.0598,-0.865904,-0.022625299999999997,-0.004391969999999999,-0.0073199499999999995,1746801752846545
10.023676,-0.064584,-0.843778,-0.02369002,-0.004391969999999999,-0.006521409999999999,1746801772818965
10.020686,-0.053222,-0.859924,-0.024355469999999997,-0.0047912399999999996,-0.00678759,1746801792791445
10.020686,-0.057408,-0.849758,-0.024355469999999997,-0.005456689999999999,-0.00678759,1746801812763845
10.026068,-0.049036,-0.862316,-0.02448856,-0.005589779999999999,-0.007586129999999999,1746801832736185
10.03145,-0.04784,-0.851552,-0.024754739999999997,-0.0053235999999999995,-0.0073199499999999995,1746801852708485
10.027862,-0.054418,-0.8372,-0.02369002,-0.00465815,-0.006388319999999999,1746801872680865
10.02846,-0.047242,-0.8419840000000001,-0.024222379999999998,-0.005456689999999999,-0.006920679999999999,1746801892653205
10.032646,-0.054418,-0.838994,-0.024887829999999996,-0.0053235999999999995,-0.00625523,1746801912625605
10.01949,-0.043056,-0.855738,-0.025553279999999998,-0.0058559599999999995,-0.006920679999999999,1746801932597865
10.009922,-0.060398,-0.8671,-0.02462165,-0.0053235999999999995,-0.006920679999999999,1746801952570265
