ax,ay,az,rx,ry,rz,timestamp
0.545974,10.012912,-0.528034,-0.023024569999999998,-0.00519051,-0.008384669999999999,1746801818871691
0.550758,9.99557,-0.517868,-0.023157659999999997,-0.00465815,-0.00825158,1746801838853211
0.550758,9.996766000000001,-0.530426,-0.023556929999999997,-0.004924329999999999,-0.007719219999999999,1746801858834871
0.563914,9.997962,-0.510094,-0.02408929,-0.00505742,-0.008384669999999999,1746801878816731
0.5411900000000001,9.987796,-0.530426,-0.024754739999999997,-0.00572287,-0.00851776,1746801898798411
0.5411900000000001,9.993776,-0.498732,-0.023956199999999997,-0.004525059999999999,-0.00678759,1746801918780211
0.545376,9.996766000000001,-0.525044,-0.024222379999999998,-0.00519051,-0.007453039999999999,1746801938761911
0.560326,9.994374,-0.522652,-0.024355469999999997,-0.0047912399999999996,-0.007719219999999999,1746801958743591
0.543582,9.985404,-0.534612,-0.02448856,-0.004525059999999999,-0.00825158,1746801978725251
0.543582,9.993776,-0.531024,-0.023823109999999998,-0.00505742,-0.007586129999999999,1746801998706891
0.55913,10.006932,-0.526838,-0.023556929999999997,-0.0047912399999999996,-0.007453039999999999,1746802018688511
0.553748,10.006334,-0.5094960000000001,-0.02448856,-0.00505742,-0.007719219999999999,1746802038670231
0.554346,10.006932,-0.525642,-0.02462165,-0.00505742,-0.007719219999999999,1746802058652111
0.55016,10.006932,-0.520858,-0.023556929999999997,-0.00612214,-0.008118489999999999,1746802078633731
0.543582,10.021284,-0.51428,-0.023423839999999998,-0.004525059999999999,-0.00825158,1746802098615491
0.5519540000000001,10.00155,-0.50531,-0.023956199999999997,-0.0053235999999999995,-0.00825158,1746802118597231
0.55016,9.996168,-0.50232,-0.02408929,-0.0053235999999999995,-0.0073199499999999995,1746802138578751
0.548366,10.009324,-0.521456,-0.023556929999999997,-0.00572287,-0.0079854,1746802158560071
0.539396,10.000354,-0.537602,-0.02369002,-0.00505742,-0.0079854,1746802178541691
0.547768,9.996168,-0.521456,-0.023956199999999997,-0.0053235999999999995,-0.007719219999999999,1746802198523411
0.554944,10.009324,-0.515476,-0.022226029999999997,-0.0053235999999999995,-0.0079854,1746802218505071
0.537602,9.99557,-0.506506,-0.023423839999999998,-0.005589779999999999,-0.00785231,1746802238486911
0.552552,10.008726,-0.504114,-0.023556929999999997,-0.0047912399999999996,-0.00865085,1746802258468691
0.5519540000000001,10.008726,-0.511888,-0.023823109999999998,-0.004924329999999999,-0.0079854,1746802278450291
0.539396,10.008128,-0.51129,-0.02408929,-0.0058559599999999995,-0.00825158,1746802298432031
0.549562,9.99856,-0.537602,-0.02369002,-0.00612214,-0.0079854,1746802318413811
0.551356,10.0165,-0.50232,-0.023956199999999997,-0.00519051,-0.006521409999999999,1746802338395451
0.552552,10.007530000000001,-0.531622,-0.023823109999999998,-0.00572287,-0.00785231,1746802358377131
0.545974,9.999756,-0.533416,-0.024355469999999997,-0.00572287,-0.00865085,1746802378358671
0.5519540000000001,10.012912,-0.51727,-0.024355469999999997,-0.005456689999999999,-0.00785231,1746802398340151
0.540592,9.999756,-0.51428,-0.02408929,-0.0058559599999999995,-0.008384669999999999,1746802418321651
0.552552,10.003344,-0.513682,-0.023556929999999997,-0.00519051,-0.009183209999999999,1746802438303271
0.553748,10.007530000000001,-0.525044,-0.023423839999999998,-0.0047912399999999996,-0.00851776,1746802458284891
0.5411900000000001,9.999158,-0.537602,-0.02502092,-0.0053235999999999995,-0.00851776,1746802478266631
0.5519540000000001,9.98062,-0.53521,-0.025287099999999996,-0.004525059999999999,-0.00825158,1746802498248311
0.553748,9.994972,-0.504712,-0.024222379999999998,-0.004924329999999999,-0.007719219999999999,1746802518229851
0.547768,9.991384,-0.49514400000000003,-0.024355469999999997,-0.004924329999999999,-0.00825158,1746802538211471
0.541788,10.006932,-0.513084,-0.025553279999999998,-0.004924329999999999,-0.00678759,1746802558193131
0.54717,10.007530000000001,-0.502918,-0.02462165,-0.00505742,-0.00785231,1746801579174731
0.548366,9.997962,-0.517868,-0.023823109999999998,-0.0047912399999999996,-0.007586129999999999,1746801599156351
0.536406,10.007530000000001,-0.521456,-0.024355469999999997,-0.0047912399999999996,-0.007053769999999999,1746801619138051
0.557336,9.999158,-0.545376,-0.023823109999999998,-0.0058559599999999995,-0.00785231,1746801639119691
0.555542,9.997962,-0.520858,-0.023423839999999998,-0.005589779999999999,-0.007453039999999999,1746801659101211
0.542984,9.996168,-0.542386,-0.023823109999999998,-0.00519051,-0.007719219999999999,1746801679082711
0.5358080000000001,9.996766000000001,-0.531024,-0.02289148,-0.004391969999999999,-0.00825158,1746801699064151
0.552552,9.999756,-0.511888,-0.023024569999999998,-0.00505742,-0.0079854,1746801719045791
0.554944,9.99557,-0.518466,-0.02369002,-0.005456689999999999,-0.007719219999999999,1746801739027271
0.5465720000000001,10.003344,-0.51727,-0.022625299999999997,-0.0053235999999999995,-0.0079854,1746801759008891
0.559728,9.99856,-0.541788,-0.024887829999999996,-0.00425888,-0.00825158,1746801778990451
0.554346,10.009922,-0.520858,-0.025287099999999996,-0.004525059999999999,-0.007053769999999999,1746801798972011
0.553748,10.00454,-0.528632,-0.023024569999999998,-0.00425888,-0.006920679999999999,1746801818953591
0.554944,10.00155,-0.516672,-0.023956199999999997,-0.0039927,-0.007586129999999999,1746801838935111
0.542386,10.003344,-0.525642,-0.024887829999999996,-0.004924329999999999,-0.007719219999999999,1746801858916571
0.554346,9.999158,-0.523848,-0.02408929,-0.0047912399999999996,-0.0073199499999999995,1746801878898091
0.542386,10.014706,-0.523848,-0.023556929999999997,-0.00519051,-0.00785231,1746801898879551
0.5465720000000001,10.015902,-0.51129,-0.023423839999999998,-0.004924329999999999,-0.00825158,1746801918861171
0.5411900000000001,10.002746,-0.536406,-0.023423839999999998,-0.004924329999999999,-0.00785231,1746801938842611
0.555542,9.991982,-0.521456,-0.02462165,-0.0053235999999999995,-0.0079854,1746801958824131
0.5358080000000001,9.997364,-0.50232,-0.02448856,-0.00412579,-0.00825158,1746801978805751
0.534014,10.002148,-0.507104,-0.023423839999999998,-0.004924329999999999,-0.008384669999999999,1746801998787331
0.55016,10.009922,-0.52325,-0.024222379999999998,-0.0047912399999999996,-0.008118489999999999,1746802018768871
0.55016,10.011118,-0.53222,-0.023956199999999997,-0.00465815,-0.008118489999999999,1746802038750451
0.552552,10.00155,-0.5382,-0.023956199999999997,-0.0034603399999999997,-0.007053769999999999,1746802058732071
0.548366,9.98959,-0.522054,-0.023556929999999997,-0.004525059999999999,-0.007719219999999999,1746802078713651
0.536406,10.018892,-0.530426,-0.02408929,-0.0047912399999999996,-0.00785231,1746802098695191
0.555542,10.00155,-0.518466,-0.023823109999999998,-0.004525059999999999,-0.0073199499999999995,1746802118676871
0.54717,10.020088,-0.525044,-0.02329075,-0.00412579,-0.00891703,1746802138658411
0.554346,10.0165,-0.52325,-0.023556929999999997,-0.005589779999999999,-0.0079854,1746802158639971
0.545974,10.000952,-0.527436,-0.02462165,-0.006521409999999999,-0.007453039999999999,1746802178621491
0.553748,9.99856,-0.532818,-0.023956199999999997,-0.004391969999999999,-0.00851776,1746802198603051
0.54717,9.990786,-0.503516,-0.02369002,-0.00465815,-0.00851776,1746802218584631
0.557934,10.011118,-0.498134,-0.024222379999999998,-0.0053235999999999995,-0.00825158,1746802238566211
0.563316,10.008726,-0.543582,-0.024754739999999997,-0.00519051,-0.008118489999999999,1746802258547851
0.547768,10.000354,-0.53222,-0.023823109999999998,-0.0047912399999999996,-0.0079854,1746802278529411
0.542984,10.009324,-0.5094960000000001,-0.02462165,-0.004924329999999999,-0.00825158,1746802298510971
0.560326,10.015902,-0.519064,-0.024887829999999996,-0.0047912399999999996,-0.008384669999999999,1746802318492551
0.5411900000000001,10.01351,-0.5382,-0.024887829999999996,-0.005589779999999999,-0.007453039999999999,1746802338474131
0.542386,10.000952,-0.504114,-0.02408929,-0.004924329999999999,-0.00851776,1746802358455731
0.544778,10.0165,-0.536406,-0.024222379999999998,-0.00412579,-0.0079854,1746802378437331
0.556738,10.014108,-0.539396,-0.024355469999999997,-0.005456689999999999,-0.008384669999999999,1746802398418831
0.541788,10.015304,-0.51727,-0.023423839999999998,-0.0053235999999999995,-0.008384669999999999,1746802418400491
0.545376,9.99856,-0.50232,-0.023823109999999998,-0.005589779999999999,-0.008118489999999999,1746802438382171
0.55315,10.002148,-0.536406,-0.023157659999999997,-0.0058559599999999995,-0.00825158,1746802458363791
0.545376,10.005138,-0.52624,-0.023956199999999997,-0.00505742,-0.009050119999999998,1746802478345391
0.547768,9.994972,-0.517868,-0.023556929999999997,-0.0047912399999999996,-0.007719219999999999,1746802498327091
0.544778,10.00454,-0.51428,-0.023024569999999998,-0.004525059999999999,-0.00851776,1746802518308611
0.540592,10.01052,-0.539396,-0.023956199999999997,-0.004525059999999999,-0.0079854,1746802538290191
0.542984,10.000354,-0.5094960000000001,-0.023556929999999997,-0.0047912399999999996,-0.007586129999999999,1746802558271731
0.548366,9.997962,-0.508898,-0.02329075,-0.005589779999999999,-0.007719219999999999,1746801579253351
0.5465720000000001,10.005138,-0.526838,-0.023556929999999997,-0.00505742,-0.008118489999999999,1746801599234951
0.557336,10.006334,-0.525642,-0.023157659999999997,-0.00465815,-0.00825158,1746801619216491
0.54418,10.012314,-0.516672,-0.023556929999999997,-0.00359343,-0.007053769999999999,1746801639198131
0.542386,10.00155,-0.51727,-0.023423839999999998,-0.00519051,-0.006521409999999999,1746801659179691
0.549562,10.000952,-0.532818,-0.023823109999999998,-0.00519051,-0.007453039999999999,1746801679161271
0.54717,9.996766000000001,-0.51727,-0.024222379999999998,-0.0058559599999999995,-0.00825158,1746801699142811
0.560326,10.006932,-0.513682,-0.02369002,-0.00572287,-0.00851776,1746801719124411
0.5519540000000001,10.018294000000001,-0.517868,-0.02369002,-0.0047912399999999996,-0.0079854,1746801739106111
0.548366,10.005736,-0.513084,-0.02289148,-0.00425888,-0.007586129999999999,1746801759087591
0.545376,10.002746,-0.533416,-0.023423839999999998,-0.00505742,-0.007053769999999999,1746801779069211
0.548366,10.011716,-0.51727,-0.024222379999999998,-0.00465815,-0.007453039999999999,1746801799050951
0.548366,9.99557,-0.503516,-0.02448856,-0.005456689999999999,-0.007719219999999999,1746801819032571
0.54418,10.006334,-0.52624,-0.023823109999999998,-0.0047912399999999996,-0.0079854,1746801839014191
0.542386,10.005736,-0.5148780000000001,-0.023823109999999998,-0.004391969999999999,-0.00865085,1746801858995811
0.544778,10.007530000000001,-0.525044,-0.023423839999999998,-0.00465815,-0.0079854,1746801878977451
0.5411900000000001,10.003344,-0.51428,-0.024355469999999997,-0.0053235999999999995,-0.008783939999999999,1746801898959051
0.545974,10.000952,-0.52624,-0.023823109999999998,-0.00465815,-0.008118489999999999,1746801918940651
0.553748,10.003942,-0.524446,-0.023024569999999998,-0.004924329999999999,-0.008118489999999999,1746801938922311
0.5411900000000001,10.003942,-0.543582,-0.02369002,-0.00505742,-0.0079854,1746801958903911
0.557336,10.002148,-0.531622,-0.02369002,-0.0053235999999999995,-0.00785231,1746801978885471
0.544778,9.99557,-0.54418,-0.02408929,-0.00519051,-0.007719219999999999,1746801998867011
0.5382,10.005736,-0.506506,-0.02462165,-0.00412579,-0.00785231,1746802018848671
0.541788,9.996766000000001,-0.531622,-0.022758389999999996,-0.00465815,-0.00718686,1746802038830251
0.555542,10.005736,-0.52624,-0.023157659999999997,-0.00465815,-0.007719219999999999,1746802058811791
0.553748,9.999158,-0.525642,-0.02408929,-0.004391969999999999,-0.007719219999999999,1746802078793331
0.542386,10.01052,-0.531622,-0.02408929,-0.0053235999999999995,-0.00785231,1746802098774891
0.542386,10.017098,-0.537004,-0.023423839999999998,-0.0037265199999999997,-0.00785231,1746802118756471
0.559728,10.003942,-0.518466,-0.02369002,-0.00465815,-0.007053769999999999,1746802138738011
0.55315,10.000952,-0.512486,-0.02369002,-0.0053235999999999995,-0.007453039999999999,1746802158719591
0.562718,10.000354,-0.511888,-0.023556929999999997,-0.00465815,-0.00785231,1746802178701171
0.538798,9.999756,-0.531622,-0.024754739999999997,-0.00612214,-0.009183209999999999,1746802198682751
0.548366,9.990786,-0.544778,-0.02369002,-0.005456689999999999,-0.009183209999999999,1746802218664391
0.55315,9.991982,-0.53222,-0.02408929,-0.00505742,-0.008384669999999999,1746802238645991
0.548964,10.000354,-0.533416,-0.023956199999999997,-0.004924329999999999,-0.008783939999999999,1746802258627571
0.55016,9.990786,-0.5083,-0.023956199999999997,-0.005989049999999999,-0.008384669999999999,1746802278609091
0.5519540000000001,9.98959,-0.5094960000000001,-0.02448856,-0.0053235999999999995,-0.00825158,1746802298590651
0.5519540000000001,9.993178,-0.50531,-0.023956199999999997,-0.00572287,-0.0079854,1746802318572251
0.547768,10.005736,-0.534612,-0.02329075,-0.00572287,-0.006920679999999999,1746802338553851
0.559728,10.009324,-0.518466,-0.023823109999999998,-0.005456689999999999,-0.007586129999999999,1746802358535491
0.55016,9.99856,-0.519662,-0.023823109999999998,-0.0053235999999999995,-0.0073199499999999995,1746802378517031
0.5411900000000001,10.012912,-0.526838,-0.022758389999999996,-0.0053235999999999995,-0.008384669999999999,1746802398498711
0.539994,10.009922,-0.548964,-0.023423839999999998,-0.0058559599999999995,-0.009050119999999998,1746802418480671
0.554944,10.014108,-0.516672,-0.02369002,-0.004924329999999999,-0.00825158,1746802438462151
0.548964,9.999158,-0.5148780000000001,-0.024754739999999997,-0.0053235999999999995,-0.007453039999999999,1746802458443771
0.552552,10.000952,-0.5148780000000001,-0.024222379999999998,-0.0053235999999999995,-0.008384669999999999,1746802478425351
0.548366,9.999158,-0.527436,-0.02369002,-0.005989049999999999,-0.008118489999999999,1746802498406951
0.545376,10.005736,-0.52325,-0.023423839999999998,-0.00612214,-0.008783939999999999,1746802518388631
0.550758,9.997364,-0.52923,-0.023556929999999997,-0.00572287,-0.00851776,1746802538370211
0.538798,9.990188,-0.519064,-0.023823109999999998,-0.004924329999999999,-0.008118489999999999,1746802558351831
0.554346,10.005138,-0.528034,-0.02408929,-0.004525059999999999,-0.00851776,1746801579333411
0.52923,10.002148,-0.528632,-0.023823109999999998,-0.0047912399999999996,-0.0079854,1746801599315011
0.543582,10.009324,-0.513084,-0.02502092,-0.00519051,-0.00825158,1746801619296591
0.54418,10.012314,-0.522054,-0.02462165,-0.005456689999999999,-0.007586129999999999,1746801639278251
0.560326,10.007530000000001,-0.523848,-0.024222379999999998,-0.00505742,-0.0079854,1746801659259791
0.550758,10.00155,-0.512486,-0.02448856,-0.004924329999999999,-0.0079854,1746801679241371
0.545974,10.00155,-0.52624,-0.023423839999999998,-0.0039927,-0.008384669999999999,1746801699222931
0.548964,10.008128,-0.51428,-0.023423839999999998,-0.0053235999999999995,-0.0079854,1746801739186311
0.5675020000000001,9.994374,-0.501124,-0.023423839999999998,-0.004525059999999999,-0.007719219999999999,1746801759167931
0.542984,9.9866,-0.5358080000000001,-0.02408929,-0.005589779999999999,-0.008118489999999999,1746801779149451
0.556738,10.0165,-0.49933,-0.024355469999999997,-0.00519051,-0.00851776,1746801799131151
0.52923,9.99258,-0.516672,-0.023423839999999998,-0.00519051,-0.00718686,1746801819112711
0.552552,9.999158,-0.5411900000000001,-0.023823109999999998,-0.004525059999999999,-0.008118489999999999,1746801839094291
0.547768,10.000952,-0.521456,-0.023423839999999998,-0.00572287,-0.009050119999999998,1746801859075811
0.554346,10.00454,-0.511888,-0.023823109999999998,-0.00625523,-0.00865085,1746801879057431
0.541788,9.996766000000001,-0.522054,-0.02289148,-0.0047912399999999996,-0.007719219999999999,1746801899039031
0.545376,10.009922,-0.537602,-0.023556929999999997,-0.00412579,-0.00891703,1746801919020711
0.550758,10.011716,-0.52923,-0.023024569999999998,-0.0058559599999999995,-0.007719219999999999,1746801939002291
0.54717,10.003942,-0.536406,-0.023956199999999997,-0.005456689999999999,-0.005989049999999999,1746801958983851
0.5519540000000001,9.999756,-0.489164,-0.024222379999999998,-0.00519051,-0.007719219999999999,1746801978965431
0.554944,10.008726,-0.499928,-0.023556929999999997,-0.005456689999999999,-0.0079854,1746801998946971
0.55315,9.99856,-0.52624,-0.023024569999999998,-0.00519051,-0.007586129999999999,1746802018928591
0.545376,9.996766000000001,-0.537004,-0.023823109999999998,-0.00465815,-0.008384669999999999,1746802038910071
0.548964,10.003942,-0.503516,-0.024355469999999997,-0.0047912399999999996,-0.00825158,1746802058891231
0.545376,10.011118,-0.525642,-0.02408929,-0.005456689999999999,-0.00825158,1746802078872771
0.55614,10.000354,-0.519064,-0.022359119999999996,-0.004924329999999999,-0.0073199499999999995,1746802098854391
0.555542,9.994972,-0.513084,-0.02329075,-0.00519051,-0.00851776,1746802118835951
0.551356,10.003344,-0.522652,-0.025553279999999998,-0.00612214,-0.008118489999999999,1746802138817491
0.557934,10.006932,-0.51129,-0.024222379999999998,-0.00519051,-0.008384669999999999,1746802158798991
0.557934,9.993178,-0.518466,-0.02329075,-0.0053235999999999995,-0.008118489999999999,1746802178780511
0.550758,10.005138,-0.52325,-0.023024569999999998,-0.00519051,-0.00851776,1746802198762131
0.544778,10.000354,-0.510094,-0.023823109999999998,-0.004391969999999999,-0.00825158,1746802218743751
0.539396,10.012314,-0.522054,-0.023956199999999997,-0.0047912399999999996,-0.007719219999999999,1746802238725351
0.559728,10.015304,-0.522054,-0.023956199999999997,-0.004391969999999999,-0.00785231,1746802258706951
0.5358080000000001,10.00155,-0.524446,-0.02408929,-0.00425888,-0.009050119999999998,1746802278688511
0.5465720000000001,9.999158,-0.516074,-0.023823109999999998,-0.004525059999999999,-0.00825158,1746802298670111
0.549562,10.006334,-0.52624,-0.024222379999999998,-0.0047912399999999996,-0.008783939999999999,1746802318651711
0.538798,10.008128,-0.5358080000000001,-0.02462165,-0.00612214,-0.008384669999999999,1746802338633251
0.5465720000000001,10.003344,-0.54717,-0.02462165,-0.00505742,-0.007719219999999999,1746802358614731
0.54717,10.00155,-0.530426,-0.023823109999999998,-0.004391969999999999,-0.008118489999999999,1746802378596251
0.544778,10.00454,-0.534014,-0.02408929,-0.00425888,-0.008783939999999999,1746802398577791
0.5465720000000001,10.008726,-0.523848,-0.023956199999999997,-0.00572287,-0.0079854,1746802418559431
0.53222,10.012912,-0.522054,-0.02369002,-0.00505742,-0.006920679999999999,1746802438540871
0.548366,9.996168,-0.49933,-0.023423839999999998,-0.004924329999999999,-0.00851776,1746802458522491
0.5358080000000001,10.007530000000001,-0.52624,-0.02369002,-0.005589779999999999,-0.007719219999999999,1746802478504071
0.538798,10.01351,-0.512486,-0.02369002,-0.0058559599999999995,-0.0073199499999999995,1746802498485651
0.537004,10.007530000000001,-0.512486,-0.023556929999999997,-0.0058559599999999995,-0.008384669999999999,1746802518467171
0.55016,9.99856,-0.507104,-0.024355469999999997,-0.004924329999999999,-0.00851776,1746802538448711
0.525044,10.006334,-0.543582,-0.02408929,-0.00425888,-0.008118489999999999,1746802558430191
0.554944,9.996168,-0.525642,-0.024355469999999997,-0.005456689999999999,-0.00785231,1746801579411751
0.55614,10.01052,-0.533416,-0.02448856,-0.004391969999999999,-0.006388319999999999,1746801599393331
0.549562,10.005138,-0.553748,-0.024222379999999998,-0.0047912399999999996,-0.00825158,1746801619374831
0.549562,10.009324,-0.5202600000000001,-0.02329075,-0.005456689999999999,-0.007586129999999999,1746801639356451
0.557934,9.997962,-0.548366,-0.023157659999999997,-0.0038596099999999994,-0.007719219999999999,1746801659337931
0.554346,10.000952,-0.53222,-0.023823109999999998,-0.0039927,-0.007586129999999999,1746801679319491
0.54717,10.00454,-0.521456,-0.024754739999999997,-0.0053235999999999995,-0.007586129999999999,1746801699301011
0.55614,10.003344,-0.513682,-0.023556929999999997,-0.004924329999999999,-0.00851776,1746801719282751
0.543582,10.006932,-0.524446,-0.023157659999999997,-0.00505742,-0.0093163,1746801739264291
0.548964,10.007530000000001,-0.530426,-0.02329075,-0.004391969999999999,-0.00851776,1746801759245791
0.54717,10.003942,-0.554346,-0.023823109999999998,-0.0038596099999999994,-0.0079854,1746801779227251
0.55016,10.00454,-0.540592,-0.02502092,-0.0047912399999999996,-0.007719219999999999,1746801799208751
0.560326,9.997364,-0.543582,-0.024887829999999996,-0.00572287,-0.006920679999999999,1746801819190251
0.54418,10.000952,-0.518466,-0.02329075,-0.0053235999999999995,-0.0073199499999999995,1746801839171711
0.562718,10.021284,-0.52624,-0.023157659999999997,-0.00519051,-0.006654499999999999,1746801859153211
0.534612,10.008726,-0.531622,-0.023823109999999998,-0.004924329999999999,-0.00825158,1746801879134711
0.536406,10.00454,-0.529828,-0.023823109999999998,-0.005589779999999999,-0.009050119999999998,1746801899116151
0.549562,10.006932,-0.513682,-0.023823109999999998,-0.005589779999999999,-0.0079854,1746801919097611
0.537004,10.003942,-0.510094,-0.02448856,-0.005456689999999999,-0.00825158,1746801939079251
0.542386,10.011118,-0.52923,-0.024887829999999996,-0.0047912399999999996,-0.00785231,1746801959060731
0.547768,10.00454,-0.521456,-0.023956199999999997,-0.004391969999999999,-0.009050119999999998,1746801979042231
0.542386,9.98361,-0.539994,-0.023823109999999998,-0.00465815,-0.009050119999999998,1746801999023711
0.548964,9.99557,-0.519064,-0.02408929,-0.00465815,-0.008783939999999999,1746802019005191
0.536406,9.997364,-0.517868,-0.02369002,-0.005589779999999999,-0.007453039999999999,1746802038986911
0.550758,10.00155,-0.5358080000000001,-0.023956199999999997,-0.00465815,-0.008118489999999999,1746802058968411
0.554346,9.994374,-0.533416,-0.024754739999999997,-0.004924329999999999,-0.007586129999999999,1746802078949931
0.54717,9.990188,-0.516672,-0.02369002,-0.004924329999999999,-0.008384669999999999,1746802098931431
0.539396,9.991982,-0.5202600000000001,-0.023823109999999998,-0.00505742,-0.007719219999999999,1746802118912911
0.538798,10.01351,-0.526838,-0.023823109999999998,-0.004525059999999999,-0.007453039999999999,1746802138894411
0.542984,10.012314,-0.539396,-0.023823109999999998,-0.005456689999999999,-0.00865085,1746802158875951
0.548964,10.003344,-0.537602,-0.023423839999999998,-0.005589779999999999,-0.00785231,1746802178857511
0.548366,10.01052,-0.5358080000000001,-0.023556929999999997,-0.005456689999999999,-0.008118489999999999,1746802198838991
0.54418,10.011118,-0.516672,-0.02408929,-0.005456689999999999,-0.008783939999999999,1746802218820511
0.555542,9.993776,-0.5094960000000001,-0.024754739999999997,-0.0053235999999999995,-0.008384669999999999,1746802238801971
0.547768,9.999756,-0.520858,-0.025287099999999996,-0.0047912399999999996,-0.008384669999999999,1746802258783511
0.549562,10.000952,-0.505908,-0.023823109999999998,-0.0053235999999999995,-0.0073199499999999995,1746802278764951
0.563914,9.996168,-0.521456,-0.023556929999999997,-0.004525059999999999,-0.0073199499999999995,1746802298746431
0.545974,10.005736,-0.498134,-0.02408929,-0.00519051,-0.007453039999999999,1746802318727951
0.548366,9.990786,-0.519064,-0.02462165,-0.00425888,-0.0073199499999999995,1746802338709471
0.541788,10.003942,-0.522054,-0.02408929,-0.0039927,-0.008384669999999999,1746802358690791
0.544778,9.999756,-0.507104,-0.023823109999999998,-0.004924329999999999,-0.009183209999999999,1746802378672191
0.559728,10.003942,-0.51129,-0.024222379999999998,-0.00505742,-0.009050119999999998,1746802398653711
0.559728,10.007530000000001,-0.511888,-0.024754739999999997,-0.004924329999999999,-0.00825158,1746802418635311
0.540592,10.002148,-0.536406,-0.023556929999999997,-0.005589779999999999,-0.0079854,1746802438616891
0.545376,9.99557,-0.533416,-0.024355469999999997,-0.00505742,-0.008783939999999999,1746802458598371
0.544778,9.99557,-0.53222,-0.02462165,-0.005589779999999999,-0.00825158,1746802478579771
0.5465720000000001,10.008726,-0.515476,-0.024754739999999997,-0.004391969999999999,-0.008783939999999999,1746802498561171
0.5519540000000001,10.002746,-0.5148780000000001,-0.02369002,-0.004924329999999999,-0.00865085,1746802518542591
0.544778,9.999158,-0.521456,-0.02289148,-0.005456689999999999,-0.008384669999999999,1746802538524191
0.55913,9.999756,-0.5094960000000001,-0.023556929999999997,-0.005456689999999999,-0.008783939999999999,1746802558505671
0.547768,10.014706,-0.5202600000000001,-0.023823109999999998,-0.0047912399999999996,-0.009449389999999998,1746801579486991
0.563316,10.000952,-0.524446,-0.023956199999999997,-0.005456689999999999,-0.008783939999999999,1746801599468451
0.554944,10.01351,-0.526838,-0.023823109999999998,-0.004924329999999999,-0.008384669999999999,1746801619449971
0.55315,10.011716,-0.540592,-0.023823109999999998,-0.004525059999999999,-0.008783939999999999,1746801639431431
0.548964,10.005138,-0.52624,-0.023823109999999998,-0.00505742,-0.00825158,1746801659412951
0.560924,9.994972,-0.538798,-0.02408929,-0.0047912399999999996,-0.00825158,1746801679394271
0.550758,9.988992,-0.542984,-0.024222379999999998,-0.004525059999999999,-0.009050119999999998,1746801699375731
0.562718,9.997962,-0.518466,-0.024887829999999996,-0.0047912399999999996,-0.008118489999999999,1746801719357171
0.551356,10.00454,-0.522652,-0.024754739999999997,-0.005589779999999999,-0.007453039999999999,1746801739338611
0.539396,10.008726,-0.52325,-0.024222379999999998,-0.005456689999999999,-0.007453039999999999,1746801759320171
0.55614,10.000952,-0.51727,-0.023823109999999998,-0.005456689999999999,-0.007719219999999999,1746801779301631
0.55016,10.00454,-0.522652,-0.02408929,-0.0053235999999999995,-0.009050119999999998,1746801799283071
0.560924,9.994374,-0.519662,-0.023556929999999997,-0.005456689999999999,-0.007586129999999999,1746801819264491
0.538798,10.018892,-0.516672,-0.024355469999999997,-0.004391969999999999,-0.00825158,1746801839245951
0.54418,10.002148,-0.51428,-0.024355469999999997,-0.005589779999999999,-0.009050119999999998,1746801859227351
0.534014,9.987796,-0.52325,-0.023823109999999998,-0.005989049999999999,-0.008384669999999999,1746801879208851
0.556738,10.009324,-0.5094960000000001,-0.025287099999999996,-0.00572287,-0.007719219999999999,1746801899190311
0.551356,9.987198,-0.537004,-0.023956199999999997,-0.0053235999999999995,-0.008384669999999999,1746801919171711
0.551356,9.99856,-0.5148780000000001,-0.024754739999999997,-0.004391969999999999,-0.007586129999999999,1746801939153131
0.548964,10.000354,-0.516672,-0.02408929,-0.004525059999999999,-0.00785231,1746801959134611
0.548964,10.005736,-0.517868,-0.024887829999999996,-0.00519051,-0.0079854,1746801979116071
0.5519540000000001,10.006334,-0.500526,-0.02408929,-0.00612214,-0.008118489999999999,1746801999097531
0.55016,9.990786,-0.520858,-0.023556929999999997,-0.00519051,-0.00825158,1746802019078971
0.547768,10.011716,-0.5382,-0.023823109999999998,-0.004924329999999999,-0.007719219999999999,1746802039060411
0.543582,10.002746,-0.525044,-0.023956199999999997,-0.005989049999999999,-0.007719219999999999,1746802059041871
0.548964,10.000354,-0.525044,-0.024355469999999997,-0.0058559599999999995,-0.008118489999999999,1746802079023231
0.554944,9.994374,-0.512486,-0.024222379999999998,-0.005589779999999999,-0.008384669999999999,1746802099004611
0.537602,9.987198,-0.522652,-0.023423839999999998,-0.004525059999999999,-0.0073199499999999995,1746802118986091
0.558532,10.015902,-0.531024,-0.02502092,-0.004924329999999999,-0.00718686,1746802138967631
0.557934,9.99557,-0.499928,-0.02462165,-0.005456689999999999,-0.008384669999999999,1746802158949111
0.55614,10.014108,-0.526838,-0.024222379999999998,-0.005456689999999999,-0.009050119999999998,1746802178930471
0.55315,10.00454,-0.504114,-0.024222379999999998,-0.004525059999999999,-0.00865085,1746802198911871
0.541788,10.005736,-0.52325,-0.024887829999999996,-0.00505742,-0.00785231,1746802218893491
0.558532,10.011118,-0.532818,-0.024754739999999997,-0.00505742,-0.008384669999999999,1746802238874951
0.54717,10.00454,-0.523848,-0.02462165,-0.00505742,-0.008118489999999999,1746802258856431
0.549562,9.990786,-0.538798,-0.02369002,-0.00465815,-0.008783939999999999,1746802278838051
0.5519540000000001,10.006334,-0.52923,-0.023556929999999997,-0.004525059999999999,-0.007719219999999999,1746802298819411
0.545974,10.000952,-0.499928,-0.024887829999999996,-0.0047912399999999996,-0.0079854,1746802318800811
0.549562,9.996168,-0.517868,-0.023823109999999998,-0.00519051,-0.00851776,1746802338782191
0.560924,10.027862,-0.528632,-0.024222379999999998,-0.0053235999999999995,-0.00785231,1746802358763651
0.554346,10.012912,-0.531622,-0.023823109999999998,-0.0047912399999999996,-0.008118489999999999,1746802378745211
0.560326,10.009922,-0.516074,-0.023556929999999997,-0.0039927,-0.0079854,1746802398726571
0.543582,10.003942,-0.49514400000000003,-0.023423839999999998,-0.00519051,-0.008783939999999999,1746802418707991
0.5519540000000001,9.99557,-0.515476,-0.02329075,-0.005589779999999999,-0.007586129999999999,1746802438689391
0.539396,10.00454,-0.524446,-0.023823109999999998,-0.005589779999999999,-0.00785231,1746802458670751
0.5411900000000001,10.015304,-0.507104,-0.023956199999999997,-0.0058559599999999995,-0.00825158,1746802478652271
0.5519540000000001,10.012314,-0.528632,-0.024222379999999998,-0.00505742,-0.0079854,1746802498633691
0.5411900000000001,10.00454,-0.52923,-0.023956199999999997,-0.005589779999999999,-0.008384669999999999,1746802518615051
0.541788,10.007530000000001,-0.51428,-0.023956199999999997,-0.006654499999999999,-0.00851776,1746802538596451
0.543582,10.007530000000001,-0.531622,-0.02408929,-0.0058559599999999995,-0.0079854,1746802558577871
0.549562,10.00454,-0.525642,-0.023157659999999997,-0.005456689999999999,-0.00825158,1746801579559311
0.565708,10.00454,-0.5094960000000001,-0.023556929999999997,-0.00519051,-0.008384669999999999,1746801599540751
0.551356,9.999158,-0.513682,-0.024355469999999997,-0.005589779999999999,-0.007586129999999999,1746801619522171
0.541788,9.994972,-0.53521,-0.023956199999999997,-0.00412579,-0.00825158,1746801639503671
0.545376,10.01949,-0.510094,-0.02329075,-0.004391969999999999,-0.008783939999999999,1746801659485111
0.55016,9.997962,-0.524446,-0.024222379999999998,-0.00505742,-0.008118489999999999,1746801679466531
0.557336,10.006334,-0.519662,-0.02448856,-0.00505742,-0.007719219999999999,1746801699447851
0.554944,10.003344,-0.516074,-0.023956199999999997,-0.004391969999999999,-0.0079854,1746801719429251
0.54717,10.003344,-0.534612,-0.02448856,-0.005456689999999999,-0.00851776,1746801739410791
0.55315,10.006932,-0.515476,-0.02369002,-0.005456689999999999,-0.007586129999999999,1746801759392191
0.536406,9.988992,-0.521456,-0.023823109999999998,-0.004525059999999999,-0.00785231,1746801779373491
0.54418,9.991384,-0.513084,-0.023556929999999997,-0.0053235999999999995,-0.00851776,1746801799354871
0.5465720000000001,9.99258,-0.517868,-0.024222379999999998,-0.004924329999999999,-0.007453039999999999,1746801819336371
0.552552,9.996766000000001,-0.536406,-0.02329075,-0.005456689999999999,-0.009050119999999998,1746801839317871
0.5358080000000001,10.011118,-0.525044,-0.02448856,-0.0058559599999999995,-0.00785231,1746801859299051
0.539994,10.01052,-0.537602,-0.023956199999999997,-0.0047912399999999996,-0.00851776,1746801879280391
0.556738,10.002148,-0.50531,-0.024222379999999998,-0.005589779999999999,-0.00825158,1746801899261731
0.539994,10.000952,-0.536406,-0.024355469999999997,-0.0047912399999999996,-0.007586129999999999,1746801919242951
0.55315,10.002148,-0.520858,-0.02369002,-0.0053235999999999995,-0.0079854,1746801939224431
0.550758,9.997962,-0.503516,-0.024222379999999998,-0.00505742,-0.00891703,1746801959205851
0.5411900000000001,10.00155,-0.512486,-0.023556929999999997,-0.004525059999999999,-0.00865085,1746801979187271
0.555542,10.01052,-0.513682,-0.02448856,-0.00465815,-0.008384669999999999,1746801999168591
0.540592,10.003344,-0.5094960000000001,-0.024222379999999998,-0.004525059999999999,-0.007053769999999999,1746802019149851
0.548964,9.993776,-0.505908,-0.02329075,-0.004391969999999999,-0.008118489999999999,1746802039131271
0.543582,9.994972,-0.506506,-0.023556929999999997,-0.00505742,-0.007719219999999999,1746802059112711
0.55913,10.014706,-0.5202600000000001,-0.023157659999999997,-0.0058559599999999995,-0.00851776,1746802079094131
0.5465720000000001,10.01052,-0.522652,-0.024222379999999998,-0.00519051,-0.00718686,1746802099075531
0.55315,9.991384,-0.528034,-0.024355469999999997,-0.004924329999999999,-0.008384669999999999,1746802119057031
0.547768,10.009922,-0.511888,-0.024355469999999997,-0.005456689999999999,-0.00785231,1746802139038491
0.545376,10.015902,-0.512486,-0.02369002,-0.00519051,-0.007719219999999999,1746802159019911
0.545376,10.005138,-0.506506,-0.02408929,-0.0053235999999999995,-0.007586129999999999,1746802179001271
0.553748,9.999756,-0.519662,-0.023956199999999997,-0.00572287,-0.007586129999999999,1746802198982851
0.542386,9.999756,-0.531622,-0.02462165,-0.004924329999999999,-0.007586129999999999,1746802218964271
0.548964,10.002746,-0.511888,-0.02408929,-0.00519051,-0.008384669999999999,1746802238945531
0.537602,9.996168,-0.51129,-0.023556929999999997,-0.00519051,-0.008384669999999999,1746802258926871
0.549562,10.011716,-0.5411900000000001,-0.02369002,-0.005589779999999999,-0.007586129999999999,1746802278908151
0.555542,10.006334,-0.523848,-0.023556929999999997,-0.00505742,-0.007719219999999999,1746802298889491
0.566306,10.005736,-0.538798,-0.023556929999999997,-0.005456689999999999,-0.007719219999999999,1746802318870931
0.55614,10.003344,-0.531024,-0.02408929,-0.00505742,-0.007719219999999999,1746802338852331
0.560924,10.008726,-0.511888,-0.024887829999999996,-0.00519051,-0.007719219999999999,1746802358833691
0.545974,10.002148,-0.55016,-0.02462165,-0.00572287,-0.008783939999999999,1746802378814971
0.532818,9.993178,-0.524446,-0.024754739999999997,-0.00519051,-0.006920679999999999,1746802398796451
0.551356,10.000354,-0.536406,-0.023556929999999997,-0.0047912399999999996,-0.008118489999999999,1746802418777951
0.5519540000000001,10.008128,-0.528034,-0.02448856,-0.00412579,-0.00718686,1746802438759331
0.556738,9.99258,-0.549562,-0.023823109999999998,-0.00412579,-0.007586129999999999,1746802458740611
0.539396,10.00155,-0.5465720000000001,-0.02408929,-0.00505742,-0.00851776,1746802478721891
0.540592,10.002148,-0.520858,-0.02408929,-0.0058559599999999995,-0.00785231,1746802498703371
0.545974,10.009922,-0.521456,-0.024222379999999998,-0.00519051,-0.007586129999999999,1746802518684871
0.545376,10.00454,-0.5094960000000001,-0.023956199999999997,-0.005989049999999999,-0.00851776,1746802538666211
0.552552,9.991982,-0.516074,-0.022758389999999996,-0.005456689999999999,-0.0073199499999999995,1746802558647551
0.54418,9.991384,-0.52923,-0.023956199999999997,-0.00505742,-0.00718686,1746801579628911
0.55016,9.988394,-0.531024,-0.02369002,-0.0053235999999999995,-0.007586129999999999,1746801599610271
0.565708,9.99557,-0.5148780000000001,-0.023423839999999998,-0.00519051,-0.00785231,1746801619591691
0.548964,9.997962,-0.507702,-0.023423839999999998,-0.005456689999999999,-0.00851776,1746801639573051
0.554346,10.003942,-0.525044,-0.023823109999999998,-0.005456689999999999,-0.00865085,1746801659554391
0.57408,9.994972,-0.516074,-0.022758389999999996,-0.005456689999999999,-0.00891703,1746801679535651
0.552552,9.99557,-0.5202600000000001,-0.023157659999999997,-0.0037265199999999997,-0.008384669999999999,1746801699516951
0.550758,9.996168,-0.519064,-0.023423839999999998,-0.00519051,-0.007719219999999999,1746801719498211
0.536406,10.003942,-0.52325,-0.02502092,-0.004525059999999999,-0.008384669999999999,1746801739479671
0.549562,10.009922,-0.519064,-0.024754739999999997,-0.0047912399999999996,-0.007719219999999999,1746801759460871
0.53521,10.002148,-0.522652,-0.02369002,-0.005589779999999999,-0.008118489999999999,1746801779442131
0.543582,9.997364,-0.5202600000000001,-0.024887829999999996,-0.005456689999999999,-0.007719219999999999,1746801799423451
0.548964,10.005736,-0.5083,-0.024887829999999996,-0.00465815,-0.00865085,1746801819404951
0.545376,9.999756,-0.531024,-0.02408929,-0.0047912399999999996,-0.008783939999999999,1746801839386151
0.54717,10.003942,-0.518466,-0.023423839999999998,-0.005456689999999999,-0.007053769999999999,1746801859367511
0.547768,10.002746,-0.519662,-0.023556929999999997,-0.005589779999999999,-0.00785231,1746801879348871
0.550758,10.008726,-0.519064,-0.023556929999999997,-0.0058559599999999995,-0.007719219999999999,1746801899330351
0.557934,9.993178,-0.516074,-0.023956199999999997,-0.00505742,-0.007719219999999999,1746801919311711
0.551356,9.994972,-0.5411900000000001,-0.023956199999999997,-0.00505742,-0.0093163,1746801939293091
0.528034,9.99557,-0.53521,-0.023157659999999997,-0.005589779999999999,-0.00891703,1746801959274551
0.5382,9.99258,-0.526838,-0.02408929,-0.005456689999999999,-0.008384669999999999,1746801979255931
0.545376,9.999158,-0.51727,-0.024222379999999998,-0.005456689999999999,-0.0079854,1746801999237251
0.549562,9.98361,-0.5465720000000001,-0.02408929,-0.00505742,-0.007719219999999999,1746802019218851
0.549562,10.00155,-0.5083,-0.024754739999999997,-0.0058559599999999995,-0.008384669999999999,1746802039200091
0.558532,9.99557,-0.525642,-0.023823109999999998,-0.00519051,-0.008118489999999999,1746802059181371
0.558532,9.98959,-0.521456,-0.02408929,-0.00572287,-0.008384669999999999,1746802079162811
0.542984,10.003344,-0.52923,-0.02448856,-0.00519051,-0.0079854,1746802099144291
0.545376,9.994972,-0.51428,-0.023956199999999997,-0.004924329999999999,-0.008384669999999999,1746802119125671
0.557934,9.997364,-0.501722,-0.024754739999999997,-0.00519051,-0.008783939999999999,1746802139107071
0.550758,10.00155,-0.531622,-0.024887829999999996,-0.004391969999999999,-0.007453039999999999,1746802159088431
0.549562,10.000952,-0.529828,-0.023556929999999997,-0.00505742,-0.007586129999999999,1746802179069831
0.554346,9.994374,-0.49514400000000003,-0.024355469999999997,-0.00519051,-0.008384669999999999,1746802199051491
0.545974,9.993178,-0.525642,-0.02408929,-0.00425888,-0.008118489999999999,1746802219032751
0.539396,10.000952,-0.506506,-0.02329075,-0.004391969999999999,-0.007719219999999999,1746802239014111
0.547768,9.997962,-0.527436,-0.023556929999999997,-0.00505742,-0.007719219999999999,1746802258995371
0.542984,9.98062,-0.508898,-0.023423839999999998,-0.005589779999999999,-0.009050119999999998,1746802278976791
0.550758,10.01052,-0.513682,-0.023823109999999998,-0.00519051,-0.0079854,1746802298958171
0.55016,10.006932,-0.506506,-0.02329075,-0.004525059999999999,-0.007453039999999999,1746802318939651
0.553748,10.012912,-0.49634,-0.023157659999999997,-0.004924329999999999,-0.008783939999999999,1746802338921131
0.566904,10.01052,-0.490958,-0.022758389999999996,-0.0047912399999999996,-0.0079854,1746802358902671
0.541788,10.009324,-0.512486,-0.024887829999999996,-0.005456689999999999,-0.007586129999999999,1746802378884011
0.539994,10.01052,-0.527436,-0.023556929999999997,-0.0058559599999999995,-0.00785231,1746802398865371
0.551356,10.000952,-0.510094,-0.024754739999999997,-0.0047912399999999996,-0.007719219999999999,1746802418846811
0.5411900000000001,9.994972,-0.499928,-0.02462165,-0.00425888,-0.008384669999999999,1746802438828231
0.5465720000000001,9.99258,-0.53222,-0.02369002,-0.00412579,-0.008384669999999999,1746802458809491
0.5411900000000001,9.999756,-0.521456,-0.024355469999999997,-0.0047912399999999996,-0.009050119999999998,1746802478790791
0.544778,9.993178,-0.517868,-0.02369002,-0.004525059999999999,-0.008783939999999999,1746802498772391
0.557336,9.993776,-0.55016,-0.023423839999999998,-0.00505742,-0.00851776,1746802518753931
0.5519540000000001,9.999756,-0.513084,-0.023823109999999998,-0.00505742,-0.00718686,1746802538735231
0.54418,9.994972,-0.541788,-0.024222379999999998,-0.00505742,-0.00825158,1746802558716551
0.557336,10.011716,-0.511888,-0.023823109999999998,-0.00465815,-0.00851776,1746801579698011
0.55614,10.007530000000001,-0.494546,-0.023556929999999997,-0.00465815,-0.008783939999999999,1746801599679231
0.537602,10.011118,-0.541788,-0.024222379999999998,-0.0047912399999999996,-0.00891703,1746801619660651
0.54717,10.003942,-0.516672,-0.023423839999999998,-0.0058559599999999995,-0.007586129999999999,1746801639642071
0.553748,9.984806,-0.5382,-0.023823109999999998,-0.004924329999999999,-0.0079854,1746801659623211
0.55315,9.991982,-0.527436,-0.023956199999999997,-0.004525059999999999,-0.008118489999999999,1746801679604571
0.549562,9.999158,-0.517868,-0.024355469999999997,-0.0053235999999999995,-0.0079854,1746801699585911
0.55315,9.996766000000001,-0.538798,-0.02462165,-0.005456689999999999,-0.00865085,1746801719567231
0.55315,10.002148,-0.523848,-0.02408929,-0.00625523,-0.008384669999999999,1746801739548511
0.54717,10.00454,-0.510692,-0.023556929999999997,-0.006654499999999999,-0.0079854,1746801759529851
0.55614,10.003344,-0.50531,-0.022758389999999996,-0.006654499999999999,-0.007719219999999999,1746801779511051
0.552552,10.005138,-0.524446,-0.023823109999999998,-0.005989049999999999,-0.0079854,1746801799492271
0.554346,9.996766000000001,-0.531024,-0.02408929,-0.00519051,-0.00865085,1746801819473551
0.547768,10.01351,-0.522054,-0.02448856,-0.004924329999999999,-0.008384669999999999,1746801839454571
0.537004,9.994972,-0.5083,-0.023024569999999998,-0.004924329999999999,-0.00865085,1746801859435971
0.545376,10.01052,-0.516672,-0.023024569999999998,-0.00572287,-0.00851776,1746801879417271
0.545376,9.981816,-0.552552,-0.023556929999999997,-0.00572287,-0.0079854,1746801899398711
0.55016,10.006932,-0.52325,-0.023423839999999998,-0.0058559599999999995,-0.0073199499999999995,1746801919380031
0.542984,9.999756,-0.545376,-0.023024569999999998,-0.004924329999999999,-0.0079854,1746801939361271
0.543582,9.999756,-0.501722,-0.02369002,-0.00465815,-0.0073199499999999995,1746801959342411
0.561522,9.98361,-0.548964,-0.023956199999999997,-0.00572287,-0.008118489999999999,1746801979324311
0.55614,9.996168,-0.513682,-0.023956199999999997,-0.005589779999999999,-0.0079854,1746801999305551
0.54418,10.011118,-0.506506,-0.02448856,-0.00572287,-0.0073199499999999995,1746802039517845
0.55315,10.00155,-0.499928,-0.02448856,-0.00505742,-0.007719219999999999,1746802059499185
0.557336,9.985404,-0.524446,-0.023823109999999998,-0.00519051,-0.00785231,1746802079480505
0.557336,9.984806,-0.529828,-0.02408929,-0.00505742,-0.008783939999999999,1746802099461865
0.5519540000000001,9.994374,-0.523848,-0.024222379999999998,-0.00572287,-0.00865085,1746802119443305
0.553748,9.988394,-0.5358080000000001,-0.023423839999999998,-0.0053235999999999995,-0.00865085,1746802139424565
0.5382,9.993178,-0.524446,-0.02462165,-0.004525059999999999,-0.008384669999999999,1746802159405965
0.5465720000000001,9.994972,-0.498732,-0.024754739999999997,-0.00612214,-0.0079854,1746802179387105
0.550758,9.999756,-0.52325,-0.023157659999999997,-0.00505742,-0.008118489999999999,1746802199368345
0.537004,10.006334,-0.51428,-0.023823109999999998,-0.004525059999999999,-0.00625523,1746802219349705
0.548366,10.005138,-0.513682,-0.022758389999999996,-0.0053235999999999995,-0.00825158,1746802239331165
0.555542,9.993776,-0.518466,-0.023556929999999997,-0.005589779999999999,-0.00851776,1746802259312405
0.539994,10.002148,-0.520858,-0.023423839999999998,-0.00572287,-0.007586129999999999,1746802279293725
0.5519540000000001,9.990188,-0.5202600000000001,-0.024754739999999997,-0.00519051,-0.0079854,1746802299275025
0.549562,9.987796,-0.516672,-0.023556929999999997,-0.005456689999999999,-0.007719219999999999,1746802319256405
0.5465720000000001,10.008726,-0.536406,-0.023423839999999998,-0.00572287,-0.007053769999999999,1746802339237785
0.545376,9.999158,-0.534612,-0.023556929999999997,-0.005589779999999999,-0.006654499999999999,1746802359219185
0.554944,10.005138,-0.519662,-0.023823109999999998,-0.004924329999999999,-0.007586129999999999,1746802379200505
0.5465720000000001,9.987198,-0.500526,-0.02448856,-0.00572287,-0.007719219999999999,1746802399181725
0.54717,10.002148,-0.513682,-0.02448856,-0.00505742,-0.007586129999999999,1746802419163065
0.545376,9.999756,-0.510692,-0.02369002,-0.004391969999999999,-0.006920679999999999,1746802439144385
0.545376,10.007530000000001,-0.520858,-0.023423839999999998,-0.00625523,-0.00678759,1746802459125785
0.540592,9.997962,-0.518466,-0.024355469999999997,-0.005589779999999999,-0.00785231,1746802479107185
0.548366,9.996168,-0.522652,-0.023556929999999997,-0.0047912399999999996,-0.00825158,1746802499088625
0.562718,9.994972,-0.534612,-0.02329075,-0.0058559599999999995,-0.007586129999999999,1746802519069965
0.551356,10.011716,-0.518466,-0.023157659999999997,-0.006521409999999999,-0.00865085,1746802539051345
0.548366,10.000354,-0.504114,-0.024355469999999997,-0.00625523,-0.008384669999999999,1746802559032745
0.554944,9.982414,-0.520858,-0.02462165,-0.00625523,-0.008118489999999999,1746801580014045
0.553748,10.002148,-0.496938,-0.02462165,-0.005589779999999999,-0.00865085,1746801599995405
0.550758,9.996766000000001,-0.506506,-0.024222379999999998,-0.0053235999999999995,-0.00865085,1746801619976845
0.55614,10.000952,-0.52325,-0.023956199999999997,-0.00612214,-0.00891703,1746801639958245
0.557336,9.99557,-0.54717,-0.02369002,-0.0058559599999999995,-0.00865085,1746801659939425
0.556738,10.0165,-0.528034,-0.024887829999999996,-0.00505742,-0.0079854,1746801679920805
0.554944,10.003942,-0.53521,-0.024222379999999998,-0.00465815,-0.008118489999999999,1746801699902065
0.547768,10.00155,-0.507104,-0.02369002,-0.0047912399999999996,-0.007053769999999999,1746801719883385
0.548964,10.000952,-0.5382,-0.02408929,-0.0053235999999999995,-0.007586129999999999,1746801739864625
0.544778,9.987796,-0.52923,-0.023423839999999998,-0.0053235999999999995,-0.00785231,1746801759845845
0.542386,9.997962,-0.504114,-0.02408929,-0.004924329999999999,-0.0079854,1746801779827285
0.545376,9.990786,-0.504114,-0.023956199999999997,-0.004391969999999999,-0.00825158,1746801799808585
0.55614,10.002746,-0.517868,-0.023556929999999997,-0.0047912399999999996,-0.00865085,1746801819789885
0.554346,10.00454,-0.519064,-0.023823109999999998,-0.005589779999999999,-0.0093163,1746801839771205
0.549562,10.011118,-0.55016,-0.024355469999999997,-0.00572287,-0.00891703,1746801859752505
0.55315,10.006334,-0.513084,-0.023823109999999998,-0.0053235999999999995,-0.00785231,1746801879733805
0.547768,10.017098,-0.545974,-0.024887829999999996,-0.0047912399999999996,-0.0079854,1746801899715185
0.549562,10.009922,-0.525642,-0.02408929,-0.004525059999999999,-0.00851776,1746801919696565
0.551356,10.002746,-0.507702,-0.023823109999999998,-0.00412579,-0.00825158,1746801939677825
0.57408,10.000354,-0.51129,-0.02369002,-0.00465815,-0.007719219999999999,1746801959659025
0.55913,10.005736,-0.5094960000000001,-0.023556929999999997,-0.00519051,-0.008384669999999999,1746801979640445
0.559728,10.008726,-0.528034,-0.02289148,-0.00412579,-0.00825158,1746801999621785
0.54418,10.002746,-0.51129,-0.023024569999999998,-0.005456689999999999,-0.008783939999999999,1746802019603165
0.545974,9.99856,-0.522652,-0.02408929,-0.0047912399999999996,-0.008783939999999999,1746802039584605
0.548366,10.006334,-0.519064,-0.02329075,-0.005589779999999999,-0.008783939999999999,1746802059565825
0.548366,9.991384,-0.523848,-0.023823109999999998,-0.004924329999999999,-0.008118489999999999,1746802079547065
0.554346,10.006334,-0.52923,-0.02289148,-0.004391969999999999,-0.00785231,1746802099528225
0.543582,10.003344,-0.525044,-0.02369002,-0.00465815,-0.00825158,1746802119509625
0.55913,9.99258,-0.531024,-0.02329075,-0.005589779999999999,-0.0079854,1746802139490885
0.558532,10.005736,-0.532818,-0.024222379999999998,-0.0053235999999999995,-0.00865085,1746802159472225
0.550758,10.005736,-0.522054,-0.023956199999999997,-0.0047912399999999996,-0.00851776,1746802179453385
0.539396,9.993178,-0.515476,-0.02448856,-0.006521409999999999,-0.00825158,1746802199434745
0.54717,10.000952,-0.530426,-0.02408929,-0.00678759,-0.007719219999999999,1746802219416185
0.536406,10.003942,-0.504712,-0.023024569999999998,-0.00572287,-0.007719219999999999,1746802239397585
0.554346,10.003344,-0.528034,-0.024222379999999998,-0.00505742,-0.008783939999999999,1746802259378865
0.551356,9.993776,-0.524446,-0.02542019,-0.00519051,-0.008384669999999999,1746802279360265
0.5519540000000001,10.002148,-0.498134,-0.023956199999999997,-0.0053235999999999995,-0.006654499999999999,1746802299340965
0.553748,9.993776,-0.517868,-0.022758389999999996,-0.005456689999999999,-0.0093163,1746802319322105
0.557934,10.006932,-0.513084,-0.023423839999999998,-0.0037265199999999997,-0.007719219999999999,1746802339303505
0.544778,9.99258,-0.529828,-0.02408929,-0.0038596099999999994,-0.00865085,1746802359284765
0.542386,10.000952,-0.531622,-0.02369002,-0.0058559599999999995,-0.00825158,1746802379266105
0.548366,9.984208,-0.512486,-0.02408929,-0.0053235999999999995,-0.00678759,1746802399247745
0.556738,10.002746,-0.522054,-0.02408929,-0.0053235999999999995,-0.007453039999999999,1746802419228925
0.55315,9.993776,-0.497536,-0.023956199999999997,-0.00505742,-0.00865085,1746802439210145
0.552552,9.997364,-0.522652,-0.024887829999999996,-0.00505742,-0.0079854,1746802459191345
0.55016,10.006932,-0.506506,-0.02408929,-0.00625523,-0.008384669999999999,1746802479172485
0.5411900000000001,9.988394,-0.5358080000000001,-0.023423839999999998,-0.00572287,-0.008118489999999999,1746802499153845
0.55614,9.996766000000001,-0.534014,-0.023157659999999997,-0.005456689999999999,-0.00785231,1746802519135045
0.554346,10.014108,-0.516074,-0.02369002,-0.0053235999999999995,-0.00785231,1746802539116185
0.539994,10.011716,-0.481988,-0.02369002,-0.005456689999999999,-0.007053769999999999,1746802559097265
0.555542,10.007530000000001,-0.508898,-0.024887829999999996,-0.00519051,-0.008384669999999999,1746801580078365
0.548964,10.005736,-0.493948,-0.024222379999999998,-0.00572287,-0.00851776,1746801600059825
0.5465720000000001,10.01052,-0.517868,-0.02408929,-0.00465815,-0.0079854,1746801620040905
0.548964,10.009324,-0.516074,-0.023157659999999997,-0.0053235999999999995,-0.008384669999999999,1746801640022105
0.553748,10.014706,-0.515476,-0.023157659999999997,-0.005989049999999999,-0.009449389999999998,1746801660003205
0.556738,10.006932,-0.539396,-0.023556929999999997,-0.005456689999999999,-0.008384669999999999,1746801679984525
0.560326,10.000952,-0.518466,-0.02369002,-0.0053235999999999995,-0.0079854,1746801699965885
0.559728,9.991982,-0.519662,-0.023823109999999998,-0.00465815,-0.00851776,1746801719947225
0.55016,10.011118,-0.517868,-0.02408929,-0.0053235999999999995,-0.00785231,1746801739928525
0.55614,9.991982,-0.521456,-0.023823109999999998,-0.004924329999999999,-0.008118489999999999,1746801759909465
0.552552,9.99557,-0.513682,-0.023956199999999997,-0.0047912399999999996,-0.0073199499999999995,1746801779890705
0.544778,9.99557,-0.508898,-0.02289148,-0.0047912399999999996,-0.0079854,1746801799871945
0.5519540000000001,9.994972,-0.518466,-0.023556929999999997,-0.005456689999999999,-0.008783939999999999,1746801819853285
0.54418,10.005138,-0.527436,-0.023423839999999998,-0.00505742,-0.0079854,1746801839834445
0.552552,10.00454,-0.532818,-0.023157659999999997,-0.00465815,-0.00785231,1746801859815445
0.548964,10.009324,-0.539994,-0.022625299999999997,-0.00625523,-0.007586129999999999,1746801879796465
0.555542,10.00155,-0.525044,-0.023157659999999997,-0.004391969999999999,-0.008118489999999999,1746801899777765
0.554346,9.994374,-0.540592,-0.02462165,-0.004391969999999999,-0.00851776,1746801919758885
0.551356,10.006932,-0.507104,-0.02462165,-0.00505742,-0.007586129999999999,1746801939740225
0.55614,10.005138,-0.508898,-0.024355469999999997,-0.004391969999999999,-0.009183209999999999,1746801959721505
0.54418,10.008128,-0.545974,-0.024222379999999998,-0.0053235999999999995,-0.0079854,1746801979702485
0.558532,10.000354,-0.520858,-0.024222379999999998,-0.004924329999999999,-0.007586129999999999,1746801999683585
0.560924,9.994972,-0.541788,-0.025287099999999996,-0.0047912399999999996,-0.007453039999999999,1746802019664765
0.549562,10.005736,-0.543582,-0.02369002,-0.00505742,-0.00718686,1746802039645625
0.559728,10.000354,-0.527436,-0.02408929,-0.0053235999999999995,-0.00851776,1746802059626865
0.569894,10.00454,-0.51129,-0.024222379999999998,-0.004391969999999999,-0.00865085,1746802079608025
0.562718,9.997962,-0.521456,-0.024355469999999997,-0.00505742,-0.008118489999999999,1746802099589125
0.549562,10.00454,-0.49634,-0.024355469999999997,-0.00612214,-0.007453039999999999,1746802119570265
0.545974,10.00155,-0.510094,-0.023956199999999997,-0.0053235999999999995,-0.008118489999999999,1746802139551345
0.558532,9.985404,-0.534014,-0.023956199999999997,-0.0047912399999999996,-0.00785231,1746802159532505
0.5411900000000001,10.00155,-0.525044,-0.023556929999999997,-0.004391969999999999,-0.00718686,1746802179513745
0.5465720000000001,10.008128,-0.531622,-0.024222379999999998,-0.004924329999999999,-0.0073199499999999995,1746802199494985
0.551356,10.009324,-0.50531,-0.02369002,-0.0058559599999999995,-0.007586129999999999,1746802219476185
0.55614,10.000952,-0.539994,-0.023823109999999998,-0.00625523,-0.00825158,1746802239457225
0.555542,10.008128,-0.52624,-0.023423839999999998,-0.00505742,-0.00785231,1746802259438425
0.5465720000000001,10.003942,-0.5411900000000001,-0.02369002,-0.0053235999999999995,-0.00825158,1746802279419565
0.550758,9.982414,-0.548366,-0.02502092,-0.005456689999999999,-0.00825158,1746802299400765
0.556738,9.988394,-0.511888,-0.02448856,-0.00519051,-0.006920679999999999,1746802319381745
0.553748,10.007530000000001,-0.498732,-0.02408929,-0.00572287,-0.007719219999999999,1746802339362705
0.557934,9.981816,-0.516672,-0.02369002,-0.0047912399999999996,-0.0073199499999999995,1746802359343705
0.557934,10.00155,-0.512486,-0.02369002,-0.00519051,-0.00785231,1746802379324965
0.543582,10.000354,-0.515476,-0.024355469999999997,-0.00612214,-0.007586129999999999,1746802399306285
0.560326,9.987198,-0.534014,-0.023956199999999997,-0.005589779999999999,-0.00718686,1746802419287385
0.558532,9.994374,-0.519064,-0.023823109999999998,-0.0053235999999999995,-0.006920679999999999,1746802439268545
0.563316,10.003942,-0.543582,-0.023823109999999998,-0.004924329999999999,-0.008118489999999999,1746802459249705
0.547768,10.006334,-0.520858,-0.02329075,-0.0053235999999999995,-0.00865085,1746802479230765
0.541788,10.003942,-0.534014,-0.023423839999999998,-0.005589779999999999,-0.00891703,1746802499211925
0.532818,9.996168,-0.5411900000000001,-0.023956199999999997,-0.005456689999999999,-0.00851776,1746802519193005
0.551356,10.006334,-0.522054,-0.023956199999999997,-0.00612214,-0.00891703,1746802539174045
0.54418,9.991384,-0.529828,-0.02542019,-0.0047912399999999996,-0.008384669999999999,1746802559155245
0.548964,10.003344,-0.527436,-0.02448856,-0.004924329999999999,-0.008384669999999999,1746801580136365
0.557934,9.996766000000001,-0.5202600000000001,-0.02408929,-0.00678759,-0.008384669999999999,1746801600117605
0.56212,9.990786,-0.520858,-0.02448856,-0.005989049999999999,-0.00678759,1746801620098845
0.56212,9.988992,-0.533416,-0.025154009999999997,-0.005589779999999999,-0.007586129999999999,1746801640080045
0.553748,9.996168,-0.522054,-0.023956199999999997,-0.004924329999999999,-0.007053769999999999,1746801660061245
0.557336,9.984806,-0.532818,-0.02408929,-0.00519051,-0.008118489999999999,1746801680042385
0.55614,9.98959,-0.518466,-0.02408929,-0.00519051,-0.00718686,1746801700023545
0.548366,9.996168,-0.513084,-0.023556929999999997,-0.005456689999999999,-0.007453039999999999,1746801720004765
0.534014,10.007530000000001,-0.540592,-0.023423839999999998,-0.0058559599999999995,-0.00785231,1746801739985965
0.538798,10.003942,-0.528034,-0.024222379999999998,-0.00465815,-0.007586129999999999,1746801759967285
0.54717,9.997962,-0.508898,-0.023556929999999997,-0.00572287,-0.006654499999999999,1746801779948485
0.551356,10.00155,-0.528034,-0.024887829999999996,-0.0047912399999999996,-0.007453039999999999,1746801799929605
0.559728,10.006334,-0.516672,-0.02408929,-0.00505742,-0.00865085,1746801819910705
0.548964,9.99557,-0.516672,-0.02448856,-0.004924329999999999,-0.007586129999999999,1746801839891825
0.538798,9.999158,-0.507702,-0.02408929,-0.0058559599999999995,-0.009050119999999998,1746801859873105
0.545376,9.987198,-0.499928,-0.02329075,-0.00572287,-0.00865085,1746801879854265
0.549562,9.991982,-0.5202600000000001,-0.023556929999999997,-0.004924329999999999,-0.008384669999999999,1746801899835425
0.5681,9.994374,-0.537602,-0.023024569999999998,-0.00519051,-0.00891703,1746801919816625
0.554346,10.005736,-0.516672,-0.023956199999999997,-0.005589779999999999,-0.007719219999999999,1746801939797825
0.54418,10.005736,-0.510094,-0.024355469999999997,-0.00519051,-0.0073199499999999995,1746801959778905
0.545376,9.994972,-0.523848,-0.02408929,-0.004924329999999999,-0.008118489999999999,1746801979760145
0.537004,10.000354,-0.5411900000000001,-0.023956199999999997,-0.0047912399999999996,-0.00865085,1746801999741425
0.55315,10.003344,-0.529828,-0.023823109999999998,-0.00465815,-0.00865085,1746802019722585
0.55315,10.006932,-0.52325,-0.023956199999999997,-0.005456689999999999,-0.00865085,1746802039703685
0.5465720000000001,9.99258,-0.523848,-0.023956199999999997,-0.00465815,-0.007453039999999999,1746802059684905
0.552552,10.005138,-0.501722,-0.023423839999999998,-0.00465815,-0.00678759,1746802079665985
0.5465720000000001,10.011716,-0.516074,-0.024222379999999998,-0.00572287,-0.008783939999999999,1746802099647045
0.558532,10.000354,-0.520858,-0.02408929,-0.00572287,-0.008384669999999999,1746802119628225
0.5411900000000001,9.991982,-0.510094,-0.02408929,-0.0053235999999999995,-0.0079854,1746802139609465
0.548964,10.00454,-0.525044,-0.023423839999999998,-0.0058559599999999995,-0.008783939999999999,1746802159590705
0.548366,10.003344,-0.519064,-0.023823109999999998,-0.004924329999999999,-0.0079854,1746802179571865
0.548366,9.987796,-0.559728,-0.023823109999999998,-0.004525059999999999,-0.008118489999999999,1746802199552985
0.548366,9.991982,-0.517868,-0.02408929,-0.005589779999999999,-0.00785231,1746802219534125
0.542386,9.999158,-0.517868,-0.02408929,-0.0053235999999999995,-0.00785231,1746802239515265
0.537602,9.996766000000001,-0.52624,-0.02408929,-0.0058559599999999995,-0.0073199499999999995,1746802259496445
0.55913,9.990786,-0.510692,-0.02408929,-0.005456689999999999,-0.007053769999999999,1746802279477625
0.551356,9.996766000000001,-0.5083,-0.023024569999999998,-0.0053235999999999995,-0.007586129999999999,1746802299458665
0.543582,9.996766000000001,-0.53521,-0.023823109999999998,-0.00519051,-0.0079854,1746802319439745
0.542386,9.997962,-0.534612,-0.02369002,-0.00519051,-0.0079854,1746802339420905
0.5465720000000001,10.008128,-0.508898,-0.024887829999999996,-0.00505742,-0.007719219999999999,1746802359402065
0.542984,10.00155,-0.528632,-0.02462165,-0.00519051,-0.008118489999999999,1746802379383265
0.544778,9.994374,-0.51727,-0.02408929,-0.004924329999999999,-0.007719219999999999,1746802399364265
0.55614,10.000952,-0.539994,-0.023823109999999998,-0.004525059999999999,-0.007719219999999999,1746802419345325
0.549562,10.011716,-0.533416,-0.023956199999999997,-0.00465815,-0.007719219999999999,1746802439326485
0.550758,10.020686,-0.51428,-0.02408929,-0.0047912399999999996,-0.008384669999999999,1746802459307665
0.559728,10.000354,-0.5202600000000001,-0.02369002,-0.004924329999999999,-0.009050119999999998,1746802479288785
0.529828,9.999158,-0.5083,-0.02369002,-0.004924329999999999,-0.00865085,1746802499269945
0.542386,10.007530000000001,-0.507104,-0.024355469999999997,-0.00519051,-0.008118489999999999,1746802519251045
0.5465720000000001,10.005138,-0.522054,-0.025154009999999997,-0.00625523,-0.0073199499999999995,1746802539232265
0.557934,10.008128,-0.524446,-0.024355469999999997,-0.0053235999999999995,-0.0079854,1746802559213405
0.55016,9.996766000000001,-0.51129,-0.024355469999999997,-0.00425888,-0.007586129999999999,1746801580194525
0.548366,10.002746,-0.520858,-0.024222379999999998,-0.00465815,-0.00851776,1746801600175725
0.563316,9.990188,-0.524446,-0.023956199999999997,-0.004525059999999999,-0.0079854,1746801620156985
0.545376,10.000354,-0.51129,-0.023956199999999997,-0.004525059999999999,-0.008118489999999999,1746801640138185
0.551356,10.005736,-0.518466,-0.02289148,-0.005456689999999999,-0.007719219999999999,1746801660119265
0.548366,10.006932,-0.516672,-0.023956199999999997,-0.00519051,-0.00865085,1746801680100445
0.55315,9.99856,-0.51428,-0.023024569999999998,-0.00572287,-0.00718686,1746801700081525
0.540592,9.996168,-0.51727,-0.02448856,-0.0038596099999999994,-0.0079854,1746801720062725
0.543582,10.006932,-0.53521,-0.024355469999999997,-0.004391969999999999,-0.008384669999999999,1746801740043925
0.54717,10.008726,-0.519662,-0.024222379999999998,-0.004924329999999999,-0.009050119999999998,1746801760025185
0.5411900000000001,10.008128,-0.5202600000000001,-0.024355469999999997,-0.00519051,-0.007453039999999999,1746801780006285
0.547768,10.000952,-0.5094960000000001,-0.02462165,-0.0047912399999999996,-0.00718686,1746801799987465
0.55913,10.009324,-0.508898,-0.02462165,-0.00465815,-0.007053769999999999,1746801819968625
0.561522,9.985404,-0.515476,-0.02408929,-0.005589779999999999,-0.007586129999999999,1746801839949965
0.542984,9.994374,-0.516672,-0.024222379999999998,-0.004924329999999999,-0.008118489999999999,1746801859931225
0.555542,9.99258,-0.5202600000000001,-0.02329075,-0.0053235999999999995,-0.007586129999999999,1746801879912425
0.550758,10.002746,-0.540592,-0.024355469999999997,-0.005456689999999999,-0.007719219999999999,1746801899893665
0.543582,10.009324,-0.511888,-0.024222379999999998,-0.00465815,-0.008384669999999999,1746801919874905
0.544778,9.990786,-0.508898,-0.023423839999999998,-0.004924329999999999,-0.008118489999999999,1746801939856005
0.554346,10.002148,-0.526838,-0.023423839999999998,-0.00572287,-0.007719219999999999,1746801959837285
0.55315,10.006932,-0.520858,-0.02369002,-0.0058559599999999995,-0.00825158,1746801979818425
0.5465720000000001,10.003942,-0.524446,-0.02408929,-0.005589779999999999,-0.00825158,1746801999799565
0.5675020000000001,9.996766000000001,-0.533416,-0.02448856,-0.00505742,-0.007719219999999999,1746802019780725
0.554944,10.005736,-0.537602,-0.024222379999999998,-0.004525059999999999,-0.0079854,1746802039761965
0.557934,9.993178,-0.52923,-0.02369002,-0.004525059999999999,-0.0079854,1746802059743125
0.5675020000000001,10.006334,-0.539994,-0.02369002,-0.005456689999999999,-0.0073199499999999995,1746802079724305
0.557336,9.986002000000001,-0.534014,-0.02462165,-0.00425888,-0.00718686,1746802099705485
0.539396,10.006334,-0.520858,-0.023423839999999998,-0.00425888,-0.007586129999999999,1746802119686665
0.542984,10.011716,-0.539994,-0.02369002,-0.00519051,-0.0079854,1746802139667825
0.534014,10.005736,-0.5358080000000001,-0.023556929999999997,-0.005989049999999999,-0.006654499999999999,1746802159649105
0.545376,9.99856,-0.501722,-0.02329075,-0.0053235999999999995,-0.007719219999999999,1746802179630085
0.54418,9.99856,-0.5202600000000001,-0.024355469999999997,-0.005456689999999999,-0.00718686,1746802199611205
0.556738,9.997962,-0.5094960000000001,-0.023556929999999997,-0.005456689999999999,-0.007053769999999999,1746802219592245
0.557336,10.002148,-0.51428,-0.024355469999999997,-0.00572287,-0.0073199499999999995,1746802239573485
0.5519540000000001,9.990188,-0.528632,-0.024754739999999997,-0.0058559599999999995,-0.0079854,1746802259554505
0.520858,10.000952,-0.527436,-0.02408929,-0.0053235999999999995,-0.00785231,1746802279535645
0.545376,10.003344,-0.510094,-0.023024569999999998,-0.00625523,-0.007586129999999999,1746802299516905
0.557934,9.994972,-0.525044,-0.023024569999999998,-0.0053235999999999995,-0.00785231,1746802319498085
0.550758,10.012314,-0.5094960000000001,-0.024355469999999997,-0.00519051,-0.00825158,1746802339479225
0.559728,9.993178,-0.516672,-0.02502092,-0.00505742,-0.008384669999999999,1746802359460325
0.542984,9.99557,-0.537004,-0.023823109999999998,-0.0053235999999999995,-0.007453039999999999,1746802379441325
0.55614,10.003942,-0.542984,-0.024222379999999998,-0.00465815,-0.007719219999999999,1746802399422265
0.545376,10.003942,-0.516672,-0.023956199999999997,-0.004525059999999999,-0.007453039999999999,1746802419403305
0.55016,9.987198,-0.499928,-0.023956199999999997,-0.00505742,-0.008384669999999999,1746802439384365
0.541788,9.98959,-0.516074,-0.024754739999999997,-0.00519051,-0.0073199499999999995,1746802459365525
0.549562,10.014108,-0.519662,-0.023823109999999998,-0.004525059999999999,-0.007453039999999999,1746802479346585
0.56212,10.008726,-0.528034,-0.02448856,-0.00612214,-0.0079854,1746802499327545
0.543582,10.00155,-0.516074,-0.024355469999999997,-0.00505742,-0.00678759,1746802519308525
0.540592,10.007530000000001,-0.532818,-0.024222379999999998,-0.004924329999999999,-0.00718686,1746802539289485
0.5411900000000001,9.990188,-0.503516,-0.023423839999999998,-0.0053235999999999995,-0.00825158,1746802559270585
0.545376,9.996766000000001,-0.513682,-0.024355469999999997,-0.0058559599999999995,-0.008384669999999999,1746801580251725
0.560924,10.012314,-0.51129,-0.02369002,-0.0058559599999999995,-0.00865085,1746801600232625
0.5465720000000001,10.006932,-0.5382,-0.023823109999999998,-0.004924329999999999,-0.00825158,1746801620213645
0.5382,9.991384,-0.534612,-0.023556929999999997,-0.00519051,-0.008118489999999999,1746801640194765
0.542386,10.003942,-0.52325,-0.023956199999999997,-0.0058559599999999995,-0.0079854,1746801660175785
0.54717,10.00454,-0.5382,-0.02369002,-0.00625523,-0.007586129999999999,1746801680156825
0.560924,10.000952,-0.52325,-0.023024569999999998,-0.005589779999999999,-0.0093163,1746801700137785
0.552552,10.005138,-0.521456,-0.023556929999999997,-0.00505742,-0.007586129999999999,1746801720118765
0.552552,9.99856,-0.493948,-0.02329075,-0.005589779999999999,-0.00851776,1746801740099845
0.55016,9.994972,-0.525642,-0.02369002,-0.004924329999999999,-0.008384669999999999,1746801760081005
0.551356,10.006932,-0.49933,-0.024355469999999997,-0.0047912399999999996,-0.007586129999999999,1746801780062045
0.536406,9.993178,-0.498134,-0.02408929,-0.004391969999999999,-0.00851776,1746801800042965
0.551356,9.990786,-0.540592,-0.023823109999999998,-0.005456689999999999,-0.00865085,1746801820024045
0.569296,9.99557,-0.527436,-0.023024569999999998,-0.00572287,-0.008783939999999999,1746801840005165
0.54418,9.999756,-0.532818,-0.02329075,-0.00519051,-0.008783939999999999,1746801859986305
0.539396,9.99856,-0.5148780000000001,-0.02369002,-0.00465815,-0.008783939999999999,1746801879967265
0.5465720000000001,9.996168,-0.498732,-0.02369002,-0.004391969999999999,-0.0079854,1746801899948405
0.5465720000000001,10.005138,-0.52325,-0.024887829999999996,-0.004391969999999999,-0.008118489999999999,1746801919929385
0.558532,10.00155,-0.513084,-0.02408929,-0.0058559599999999995,-0.0079854,1746801939910265
0.5519540000000001,9.99258,-0.520858,-0.023956199999999997,-0.0058559599999999995,-0.00785231,1746801959891305
0.557336,10.000354,-0.521456,-0.02369002,-0.0058559599999999995,-0.008118489999999999,1746801979872445
0.537602,9.997962,-0.51129,-0.023823109999999998,-0.005456689999999999,-0.007586129999999999,1746801999853545
0.543582,9.994972,-0.53521,-0.02369002,-0.005989049999999999,-0.00865085,1746802019834745
0.547768,9.996766000000001,-0.510094,-0.024355469999999997,-0.004391969999999999,-0.00785231,1746802039815765
0.551356,9.987796,-0.537004,-0.023556929999999997,-0.0053235999999999995,-0.00718686,1746802059796905
0.563914,9.99557,-0.52325,-0.023024569999999998,-0.004924329999999999,-0.0073199499999999995,1746802079778025
0.539994,9.999756,-0.513084,-0.02448856,-0.005589779999999999,-0.008783939999999999,1746802099759065
0.543582,10.00454,-0.507104,-0.02448856,-0.0058559599999999995,-0.007719219999999999,1746802119739925
0.55016,9.99856,-0.5202600000000001,-0.024754739999999997,-0.00519051,-0.00785231,1746802139720925
0.551356,9.993178,-0.528034,-0.023956199999999997,-0.00505742,-0.00865085,1746802159702025
0.556738,9.994972,-0.516672,-0.023956199999999997,-0.00519051,-0.0079854,1746802179683085
0.543582,9.980022,-0.501722,-0.023823109999999998,-0.004924329999999999,-0.00825158,1746802199664025
0.555542,9.991982,-0.522652,-0.023823109999999998,-0.00519051,-0.008118489999999999,1746802219645125
0.550758,9.99557,-0.526838,-0.024355469999999997,-0.005589779999999999,-0.007719219999999999,1746802239626165
0.540592,9.994972,-0.51428,-0.024754739999999997,-0.006388319999999999,-0.0073199499999999995,1746802259607285
0.54717,10.009324,-0.52923,-0.023823109999999998,-0.00425888,-0.00718686,1746802279588265
0.550758,10.009922,-0.523848,-0.02502092,-0.0047912399999999996,-0.00785231,1746802299569425
0.55315,9.986002000000001,-0.52325,-0.024887829999999996,-0.00572287,-0.008384669999999999,1746802319550605
0.561522,9.994972,-0.512486,-0.02462165,-0.004924329999999999,-0.00851776,1746802339531665
0.5382,10.003344,-0.510094,-0.023956199999999997,-0.00425888,-0.00865085,1746802359512765
0.539396,10.005138,-0.5411900000000001,-0.023956199999999997,-0.005589779999999999,-0.008384669999999999,1746802379493805
0.543582,9.990188,-0.522054,-0.02329075,-0.0039927,-0.007453039999999999,1746802399474925
0.560924,9.994374,-0.539994,-0.023956199999999997,-0.005589779999999999,-0.00678759,1746802419455905
0.557336,10.005138,-0.517868,-0.024222379999999998,-0.00612214,-0.0079854,1746802439436865
0.55315,10.00155,-0.506506,-0.02408929,-0.005589779999999999,-0.00785231,1746802459417965
0.5411900000000001,9.994374,-0.510094,-0.023823109999999998,-0.00572287,-0.00785231,1746802479398865
0.542984,9.99856,-0.539396,-0.024355469999999997,-0.004924329999999999,-0.008118489999999999,1746802499379905
0.5382,10.008128,-0.522054,-0.02369002,-0.0031941599999999997,-0.0079854,1746802519360985
0.55315,10.006932,-0.519662,-0.02369002,-0.00519051,-0.00825158,1746802539341965
0.563914,10.00454,-0.528034,-0.02462165,-0.0053235999999999995,-0.007453039999999999,1746802559323045
0.541788,9.996766000000001,-0.52624,-0.023956199999999997,-0.00612214,-0.00825158,1746801580304065
0.552552,10.01351,-0.539396,-0.023956199999999997,-0.0053235999999999995,-0.0079854,1746801600285025
0.5358080000000001,10.002148,-0.53521,-0.02408929,-0.00519051,-0.007453039999999999,1746801620266025
0.541788,9.997364,-0.53521,-0.023823109999999998,-0.0047912399999999996,-0.007053769999999999,1746801640247005
0.545974,10.003942,-0.508898,-0.022758389999999996,-0.0047912399999999996,-0.007453039999999999,1746801660228045
0.554944,9.991384,-0.513682,-0.023423839999999998,-0.0047912399999999996,-0.00865085,1746801680209225
0.541788,9.982414,-0.510094,-0.023956199999999997,-0.00465815,-0.006654499999999999,1746801700190165
0.54717,9.98959,-0.519662,-0.02408929,-0.00572287,-0.0073199499999999995,1746801720171205
0.556738,10.005736,-0.522652,-0.023956199999999997,-0.005589779999999999,-0.007586129999999999,1746801740152145
0.55913,10.005736,-0.521456,-0.023823109999999998,-0.00505742,-0.00785231,1746801760133225
0.551356,9.991982,-0.518466,-0.024355469999999997,-0.0038596099999999994,-0.00971557,1746801780114345
0.542386,9.990786,-0.527436,-0.02408929,-0.0047912399999999996,-0.009050119999999998,1746801800095345
0.545376,9.999756,-0.524446,-0.024355469999999997,-0.0039927,-0.007586129999999999,1746801820076425
0.542984,9.99557,-0.527436,-0.024355469999999997,-0.00505742,-0.007719219999999999,1746801840057405
0.5358080000000001,9.99557,-0.519064,-0.02369002,-0.00519051,-0.0073199499999999995,1746801860038385
0.543582,10.00454,-0.504712,-0.024222379999999998,-0.00572287,-0.00851776,1746801880019445
0.542386,9.997364,-0.522652,-0.023556929999999997,-0.00505742,-0.00785231,1746801900000465
0.563914,10.002148,-0.516074,-0.024754739999999997,-0.006654499999999999,-0.009050119999999998,1746801919981425
0.55315,9.98959,-0.520858,-0.024754739999999997,-0.005989049999999999,-0.00785231,1746801939962305
0.552552,10.006334,-0.517868,-0.02369002,-0.0058559599999999995,-0.0073199499999999995,1746801959943125
0.55315,9.993178,-0.48737,-0.023423839999999998,-0.005589779999999999,-0.007453039999999999,1746801979924205
0.542386,9.996168,-0.519064,-0.02462165,-0.00465815,-0.00825158,1746801999905345
0.540592,9.999158,-0.513682,-0.024355469999999997,-0.0047912399999999996,-0.007719219999999999,1746802019886285
0.548366,10.005736,-0.526838,-0.024355469999999997,-0.00505742,-0.007719219999999999,1746802039867105
0.540592,9.994374,-0.51727,-0.023556929999999997,-0.005589779999999999,-0.007453039999999999,1746802059848165
0.551356,10.000354,-0.505908,-0.023556929999999997,-0.00519051,-0.007453039999999999,1746802079829285
0.548366,9.997364,-0.51428,-0.024222379999999998,-0.005456689999999999,-0.0073199499999999995,1746802099810225
0.539994,9.996766000000001,-0.525642,-0.024754739999999997,-0.005989049999999999,-0.00785231,1746802119791225
0.55913,9.994972,-0.550758,-0.023956199999999997,-0.00612214,-0.0079854,1746802139772245
0.550758,9.99557,-0.5202600000000001,-0.023556929999999997,-0.005589779999999999,-0.008783939999999999,1746802159753245
0.548366,9.990188,-0.52624,-0.02408929,-0.00612214,-0.00851776,1746802179734265
0.560326,10.000354,-0.504712,-0.02408929,-0.005989049999999999,-0.008384669999999999,1746802199715225
0.548366,10.008128,-0.528632,-0.02329075,-0.005589779999999999,-0.007719219999999999,1746802219696325
0.55016,9.999158,-0.518466,-0.023823109999999998,-0.0047912399999999996,-0.008118489999999999,1746802239677365
0.545974,9.997364,-0.5382,-0.022758389999999996,-0.0058559599999999995,-0.007586129999999999,1746802259658285
0.541788,10.005736,-0.539396,-0.023423839999999998,-0.00519051,-0.00825158,1746802279639365
0.551356,9.990188,-0.525642,-0.02369002,-0.00519051,-0.008783939999999999,1746802299620245
0.5358080000000001,10.002148,-0.510692,-0.02369002,-0.004924329999999999,-0.00825158,1746802319601125
0.547768,10.002148,-0.534612,-0.02408929,-0.0047912399999999996,-0.008783939999999999,1746802339582125
0.5465720000000001,10.008726,-0.52923,-0.024355469999999997,-0.00519051,-0.00785231,1746802359563045
0.547768,10.012912,-0.528034,-0.023823109999999998,-0.00425888,-0.007586129999999999,1746802379544085
0.539994,9.996168,-0.510094,-0.024355469999999997,-0.00505742,-0.007586129999999999,1746802399525085
0.5465720000000001,9.999158,-0.531024,-0.024355469999999997,-0.005456689999999999,-0.00785231,1746802419506005
0.542984,9.99856,-0.53222,-0.023956199999999997,-0.005456689999999999,-0.00785231,1746802439486985
0.54717,10.003942,-0.519064,-0.024222379999999998,-0.006388319999999999,-0.00865085,1746802459467985
0.538798,10.008128,-0.527436,-0.02408929,-0.00465815,-0.009183209999999999,1746802479448985
0.538798,9.997364,-0.516672,-0.024887829999999996,-0.004525059999999999,-0.008118489999999999,1746802499429925
0.543582,10.008726,-0.52325,-0.023956199999999997,-0.0047912399999999996,-0.00865085,1746802519410945
0.554346,9.994972,-0.522652,-0.024355469999999997,-0.00425888,-0.008384669999999999,1746802539391865
0.553748,10.000952,-0.531622,-0.02369002,-0.0058559599999999995,-0.007719219999999999,1746802559372805
0.561522,9.99258,-0.52624,-0.02329075,-0.00612214,-0.00785231,1746801580353825
0.5465720000000001,10.011716,-0.539396,-0.023956199999999997,-0.0053235999999999995,-0.00785231,1746801600334845
0.561522,9.999756,-0.522652,-0.02369002,-0.00519051,-0.008384669999999999,1746801620315785
0.541788,10.008128,-0.508898,-0.024355469999999997,-0.0047912399999999996,-0.00891703,1746801640296565
0.541788,10.002148,-0.501722,-0.023823109999999998,-0.00505742,-0.008783939999999999,1746801660277585
0.5465720000000001,9.99557,-0.5083,-0.023556929999999997,-0.005589779999999999,-0.00851776,1746801680258625
0.556738,10.008726,-0.515476,-0.024355469999999997,-0.00519051,-0.00785231,1746801700239525
0.548366,9.999158,-0.53222,-0.02369002,-0.005456689999999999,-0.00865085,1746801720220405
0.5465720000000001,9.988394,-0.51428,-0.023556929999999997,-0.005589779999999999,-0.0079854,1746801740201485
0.551356,9.98959,-0.53521,-0.023423839999999998,-0.0053235999999999995,-0.00785231,1746801760182585
0.539994,10.006932,-0.518466,-0.02249221,-0.0053235999999999995,-0.0079854,1746801780163525
0.552552,9.9866,-0.531024,-0.02289148,-0.0047912399999999996,-0.00865085,1746801800144445
0.566904,10.002148,-0.522652,-0.023556929999999997,-0.004525059999999999,-0.008118489999999999,1746801820125405
0.555542,10.00155,-0.5148780000000001,-0.023823109999999998,-0.005456689999999999,-0.00718686,1746801840106305
0.566306,9.997962,-0.513682,-0.02369002,-0.0058559599999999995,-0.00865085,1746801860087165
0.540592,10.014706,-0.510094,-0.02369002,-0.0053235999999999995,-0.00825158,1746801880068145
0.555542,10.00155,-0.51428,-0.024754739999999997,-0.00519051,-0.008384669999999999,1746801900049165
0.560326,10.003942,-0.526838,-0.023823109999999998,-0.005456689999999999,-0.00851776,1746801920030005
0.548366,10.014108,-0.511888,-0.02408929,-0.005589779999999999,-0.008118489999999999,1746801940010985
0.542984,10.006334,-0.539396,-0.02502092,-0.0053235999999999995,-0.00851776,1746801959991945
0.563316,9.993178,-0.515476,-0.023423839999999998,-0.005589779999999999,-0.00785231,1746801979972865
0.549562,10.009324,-0.508898,-0.023024569999999998,-0.0053235999999999995,-0.0073199499999999995,1746801999953865
0.5382,9.99258,-0.5411900000000001,-0.02329075,-0.0053235999999999995,-0.00785231,1746802019934825
0.555542,9.99557,-0.523848,-0.02448856,-0.00505742,-0.007719219999999999,1746802039915765
0.548964,10.006932,-0.525642,-0.024355469999999997,-0.004525059999999999,-0.0079854,1746802059896705
0.545974,10.009922,-0.5083,-0.023423839999999998,-0.004924329999999999,-0.00865085,1746802079877645
0.559728,10.000952,-0.51129,-0.023556929999999997,-0.0058559599999999995,-0.00891703,1746802099858525
0.555542,10.005138,-0.525044,-0.023556929999999997,-0.005989049999999999,-0.007719219999999999,1746802119839525
0.542386,10.002148,-0.531622,-0.02408929,-0.006388319999999999,-0.0079854,1746802139820605
0.552552,9.996168,-0.505908,-0.024222379999999998,-0.0053235999999999995,-0.007453039999999999,1746802159801445
0.570492,10.00155,-0.52325,-0.024355469999999997,-0.00465815,-0.00865085,1746802179782345
0.554346,10.00454,-0.53521,-0.02462165,-0.005456689999999999,-0.008384669999999999,1746802199763325
0.548964,10.005138,-0.521456,-0.023423839999999998,-0.005456689999999999,-0.0079854,1746802219744265
0.54418,10.006334,-0.51129,-0.023823109999999998,-0.00519051,-0.007453039999999999,1746802239725265
0.544778,9.999158,-0.508898,-0.023823109999999998,-0.0047912399999999996,-0.00891703,1746802259706245
0.543582,10.008128,-0.512486,-0.023823109999999998,-0.00505742,-0.0079854,1746802279687285
0.563914,10.000354,-0.54418,-0.023157659999999997,-0.00519051,-0.0079854,1746802299668205
0.55016,10.00454,-0.51727,-0.02329075,-0.00505742,-0.007586129999999999,1746802319649185
0.558532,10.012912,-0.51428,-0.02462165,-0.004924329999999999,-0.007453039999999999,1746802339630145
0.541788,9.99258,-0.519662,-0.024222379999999998,-0.005589779999999999,-0.00825158,1746802359611165
0.55315,10.008726,-0.53222,-0.023956199999999997,-0.005456689999999999,-0.0079854,1746802379592005
0.545974,9.993776,-0.498134,-0.02408929,-0.0058559599999999995,-0.008118489999999999,1746802399572845
0.55913,10.005138,-0.513682,-0.02369002,-0.00412579,-0.00785231,1746802419553825
0.560924,10.002148,-0.534612,-0.023823109999999998,-0.00425888,-0.00891703,1746802439534805
0.547768,10.012314,-0.534014,-0.023556929999999997,-0.00519051,-0.00825158,1746802459515725
0.559728,10.003344,-0.51727,-0.023823109999999998,-0.00425888,-0.00785231,1746802479496745
0.548964,10.0165,-0.510094,-0.02462165,-0.00572287,-0.00825158,1746802499477785
0.55315,9.99258,-0.538798,-0.02462165,-0.005589779999999999,-0.007586129999999999,1746802519458705
0.55614,9.991384,-0.545974,-0.024222379999999998,-0.00572287,-0.007053769999999999,1746802539439605
0.541788,9.990188,-0.501722,-0.02408929,-0.0058559599999999995,-0.00825158,1746802559420565
0.538798,9.994972,-0.533416,-0.02369002,-0.004924329999999999,-0.008384669999999999,1746801580401565
0.54418,10.00155,-0.512486,-0.024355469999999997,-0.0058559599999999995,-0.00865085,1746801600382545
0.553748,10.006334,-0.53521,-0.024222379999999998,-0.004924329999999999,-0.00825158,1746801620363625
0.55016,9.99557,-0.53222,-0.023956199999999997,-0.00505742,-0.00865085,1746801640344525
0.539396,10.007530000000001,-0.507104,-0.02448856,-0.005589779999999999,-0.009050119999999998,1746801660325425
0.55913,9.996168,-0.52923,-0.02408929,-0.005456689999999999,-0.00785231,1746801680306365
0.541788,10.020686,-0.537602,-0.023823109999999998,-0.0053235999999999995,-0.007586129999999999,1746801700287325
0.557336,10.009922,-0.520858,-0.024355469999999997,-0.0058559599999999995,-0.00785231,1746801720268245
0.547768,9.997364,-0.5358080000000001,-0.023956199999999997,-0.004924329999999999,-0.00891703,1746801740249225
0.542386,10.002746,-0.515476,-0.024222379999999998,-0.004924329999999999,-0.00851776,1746801760230105
0.551356,9.987796,-0.52325,-0.02448856,-0.0047912399999999996,-0.00825158,1746801780210945
0.550758,9.987796,-0.520858,-0.02408929,-0.0047912399999999996,-0.008384669999999999,1746801800191965
0.547768,9.999756,-0.519662,-0.023956199999999997,-0.004924329999999999,-0.00825158,1746801820172925
0.5465720000000001,10.008128,-0.516672,-0.023823109999999998,-0.0039927,-0.007586129999999999,1746801840153925
0.560326,9.990188,-0.5411900000000001,-0.023823109999999998,-0.004391969999999999,-0.00785231,1746801860134825
0.557934,9.990786,-0.519662,-0.02329075,-0.00465815,-0.00865085,1746801880115705
0.544778,9.999756,-0.532818,-0.024355469999999997,-0.004924329999999999,-0.00851776,1746801900096625
0.557336,9.996168,-0.516074,-0.02448856,-0.004924329999999999,-0.0079854,1746801920077425
0.552552,10.00155,-0.5148780000000001,-0.024754739999999997,-0.00505742,-0.007586129999999999,1746801940058365
0.545376,9.997962,-0.498732,-0.02369002,-0.00505742,-0.007453039999999999,1746801960039265
0.551356,10.006334,-0.520858,-0.02369002,-0.0047912399999999996,-0.00718686,1746801980020185
0.554346,10.011118,-0.515476,-0.023157659999999997,-0.004924329999999999,-0.0079854,1746802000001045
0.56511,10.002148,-0.501124,-0.02329075,-0.00519051,-0.0079854,1746802019981945
0.560326,10.003942,-0.55315,-0.02369002,-0.00465815,-0.00865085,1746802039962865
0.54418,9.990188,-0.5411900000000001,-0.024222379999999998,-0.005456689999999999,-0.00825158,1746802059943905
0.554346,10.000952,-0.52923,-0.023556929999999997,-0.00572287,-0.0079854,1746802079924805
0.558532,9.988992,-0.526838,-0.023423839999999998,-0.005589779999999999,-0.0079854,1746802099905725
0.55614,10.00155,-0.529828,-0.023423839999999998,-0.00505742,-0.007719219999999999,1746802119886525
0.561522,9.991982,-0.53521,-0.02462165,-0.00505742,-0.0079854,1746802139867365
0.543582,9.99856,-0.528632,-0.024222379999999998,-0.004924329999999999,-0.00865085,1746802159848225
0.541788,9.99557,-0.534612,-0.023823109999999998,-0.00465815,-0.00865085,1746802179829325
0.551356,9.997364,-0.50531,-0.025287099999999996,-0.004525059999999999,-0.007453039999999999,1746802199810245
0.551356,10.00155,-0.50531,-0.025287099999999996,-0.005589779999999999,-0.006920679999999999,1746802219791105
0.547768,10.011716,-0.529828,-0.023956199999999997,-0.005589779999999999,-0.007719219999999999,1746802239771985
0.548366,9.996766000000001,-0.52624,-0.02369002,-0.0058559599999999995,-0.00865085,1746802259752845
0.56212,10.008726,-0.534612,-0.023956199999999997,-0.00505742,-0.008118489999999999,1746802279733765
0.55614,9.999158,-0.508898,-0.023823109999999998,-0.005589779999999999,-0.009449389999999998,1746802299714645
0.561522,10.005736,-0.529828,-0.023556929999999997,-0.00572287,-0.008118489999999999,1746802319695585
0.547768,9.990188,-0.519662,-0.02329075,-0.00505742,-0.008118489999999999,1746802339676545
0.549562,9.993776,-0.519662,-0.023956199999999997,-0.004924329999999999,-0.007453039999999999,1746802359657485
0.538798,10.005138,-0.525642,-0.024887829999999996,-0.0039927,-0.008118489999999999,1746802379638365
0.542984,10.007530000000001,-0.51129,-0.02462165,-0.00425888,-0.00718686,1746802399619305
0.537004,10.014108,-0.542984,-0.02408929,-0.004391969999999999,-0.008118489999999999,1746802419600225
0.53222,9.997364,-0.537004,-0.023956199999999997,-0.004924329999999999,-0.008118489999999999,1746802439581165
0.547768,10.002148,-0.5411900000000001,-0.024355469999999997,-0.00505742,-0.00865085,1746802459562065
0.548366,9.996168,-0.515476,-0.023823109999999998,-0.00425888,-0.009582479999999999,1746802479542885
0.553748,9.996168,-0.5083,-0.02329075,-0.00505742,-0.008783939999999999,1746802499523965
0.536406,9.997364,-0.517868,-0.023024569999999998,-0.00612214,-0.00891703,1746802519504825
0.555542,9.993178,-0.523848,-0.022359119999999996,-0.00425888,-0.008118489999999999,1746802539485665
0.56212,10.007530000000001,-0.50531,-0.023024569999999998,-0.004924329999999999,-0.008384669999999999,1746802559466565
0.550758,10.000354,-0.542984,-0.02369002,-0.005456689999999999,-0.00785231,1746801580447745
0.543582,9.993776,-0.516672,-0.023823109999999998,-0.0053235999999999995,-0.00865085,1746801600428585
0.559728,10.00155,-0.545974,-0.023956199999999997,-0.0047912399999999996,-0.00825158,1746801620409445
0.547768,9.999158,-0.521456,-0.023956199999999997,-0.00505742,-0.007719219999999999,1746801640390285
0.527436,10.015902,-0.522054,-0.023423839999999998,-0.0053235999999999995,-0.007453039999999999,1746801660371205
0.537602,9.99557,-0.51428,-0.024222379999999998,-0.005989049999999999,-0.007719219999999999,1746801680352065
0.55016,9.997364,-0.521456,-0.023157659999999997,-0.005589779999999999,-0.00825158,1746801700332785
0.562718,9.991982,-0.528632,-0.02369002,-0.0053235999999999995,-0.008384669999999999,1746801720313625
0.552552,10.015304,-0.532818,-0.023556929999999997,-0.00505742,-0.007586129999999999,1746801740294425
0.552552,10.003942,-0.513682,-0.023157659999999997,-0.00412579,-0.008118489999999999,1746801760275345
0.545974,9.997364,-0.498134,-0.023157659999999997,-0.005589779999999999,-0.009050119999999998,1746801780256225
0.552552,9.9866,-0.531622,-0.023823109999999998,-0.00572287,-0.0079854,1746801800237145
0.548366,9.991982,-0.52624,-0.02329075,-0.005989049999999999,-0.00851776,1746801820217805
0.543582,10.00454,-0.522054,-0.024754739999999997,-0.00505742,-0.0079854,1746801840198625
0.5465720000000001,9.997962,-0.522652,-0.024887829999999996,-0.005456689999999999,-0.00891703,1746801860179445
0.545974,9.990786,-0.539396,-0.024754739999999997,-0.00519051,-0.007719219999999999,1746801880160245
0.53222,9.993776,-0.510692,-0.023956199999999997,-0.00465815,-0.0079854,1746801900141105
0.552552,9.996168,-0.524446,-0.025154009999999997,-0.0047912399999999996,-0.008118489999999999,1746801920121985
0.551356,10.01052,-0.52624,-0.024355469999999997,-0.0058559599999999995,-0.00865085,1746801940102885
0.544778,10.009922,-0.530426,-0.02369002,-0.004391969999999999,-0.008118489999999999,1746801960083625
0.5382,10.005736,-0.5411900000000001,-0.02448856,-0.00465815,-0.006920679999999999,1746801980064365
0.544778,10.007530000000001,-0.527436,-0.024355469999999997,-0.004525059999999999,-0.007586129999999999,1746802000045165
0.555542,9.994972,-0.510094,-0.02369002,-0.00519051,-0.008118489999999999,1746802020026065
0.545974,10.002148,-0.511888,-0.023556929999999997,-0.00519051,-0.00851776,1746802040006865
0.55913,9.988992,-0.5083,-0.023956199999999997,-0.005589779999999999,-0.00891703,1746802059987605
0.537602,9.994374,-0.51428,-0.024222379999999998,-0.004924329999999999,-0.00851776,1746802079968365
0.544778,10.007530000000001,-0.519064,-0.02369002,-0.006388319999999999,-0.0079854,1746802099949265
0.54717,9.990188,-0.516074,-0.023956199999999997,-0.005456689999999999,-0.007719219999999999,1746802119930165
0.54418,9.996168,-0.513682,-0.022625299999999997,-0.005456689999999999,-0.007586129999999999,1746802139910805
0.55016,9.996168,-0.519064,-0.023024569999999998,-0.005456689999999999,-0.00785231,1746802159891645
0.544778,10.000952,-0.533416,-0.023556929999999997,-0.005989049999999999,-0.0073199499999999995,1746802179872525
0.551356,9.99258,-0.537004,-0.023157659999999997,-0.00505742,-0.007453039999999999,1746802199853505
0.5465720000000001,10.01052,-0.520858,-0.02289148,-0.00465815,-0.008384669999999999,1746802219834045
0.531024,10.0165,-0.547768,-0.024355469999999997,-0.00465815,-0.00865085,1746802239814905
0.545974,9.99856,-0.507104,-0.024887829999999996,-0.005589779999999999,-0.007453039999999999,1746802279777739
0.55614,9.999756,-0.516672,-0.023823109999999998,-0.004391969999999999,-0.00825158,1746802299758639
0.548964,10.003344,-0.530426,-0.023423839999999998,-0.005456689999999999,-0.00718686,1746802319739599
0.56212,10.01052,-0.532818,-0.023823109999999998,-0.005589779999999999,-0.00678759,1746802339720539
0.566904,10.006932,-0.520858,-0.024355469999999997,-0.00465815,-0.007053769999999999,1746802359701399
0.551356,10.005138,-0.51727,-0.024222379999999998,-0.0047912399999999996,-0.007586129999999999,1746802379682619
0.552552,10.002746,-0.539396,-0.02408929,-0.0047912399999999996,-0.007719219999999999,1746802399663679
0.5411900000000001,10.01052,-0.538798,-0.02408929,-0.005589779999999999,-0.008384669999999999,1746802419644719
0.547768,9.98959,-0.51727,-0.023956199999999997,-0.00519051,-0.00718686,1746802439625699
0.533416,9.996168,-0.5358080000000001,-0.02408929,-0.0053235999999999995,-0.006920679999999999,1746802459606679
0.539994,9.99557,-0.539396,-0.024754739999999997,-0.004924329999999999,-0.008783939999999999,1746802479587659
0.55614,9.996168,-0.512486,-0.02448856,-0.00519051,-0.0079854,1746802499568659
0.545376,10.011118,-0.5094960000000001,-0.024887829999999996,-0.00465815,-0.008783939999999999,1746802519549699
0.550758,10.01351,-0.519064,-0.02408929,-0.004525059999999999,-0.00825158,1746802539530679
0.550758,9.997962,-0.510094,-0.02408929,-0.0058559599999999995,-0.00785231,1746802559511639
0.548366,9.996168,-0.513682,-0.023157659999999997,-0.005589779999999999,-0.007453039999999999,1746801580492559
0.537004,10.005138,-0.507702,-0.02408929,-0.00505742,-0.00851776,1746801600473459
0.549562,9.997962,-0.525642,-0.02448856,-0.00412579,-0.00718686,1746801620454439
0.533416,9.99258,-0.515476,-0.023956199999999997,-0.004391969999999999,-0.0073199499999999995,1746801640435399
0.537004,10.008128,-0.540592,-0.02408929,-0.004924329999999999,-0.007719219999999999,1746801660416299
0.5411900000000001,10.008726,-0.527436,-0.023956199999999997,-0.004924329999999999,-0.00785231,1746801680397219
0.553748,10.00454,-0.51129,-0.023956199999999997,-0.005456689999999999,-0.0079854,1746801700378059
0.550758,10.005138,-0.519662,-0.023823109999999998,-0.004924329999999999,-0.00851776,1746801720358939
0.557336,9.984208,-0.501722,-0.02369002,-0.004924329999999999,-0.00865085,1746801740339919
0.542984,10.008726,-0.528632,-0.02462165,-0.00465815,-0.007453039999999999,1746801760320859
0.548964,10.006334,-0.525642,-0.024754739999999997,-0.004924329999999999,-0.006920679999999999,1746801780301619
0.550758,10.006932,-0.520858,-0.023956199999999997,-0.004924329999999999,-0.007586129999999999,1746801800282559
0.5465720000000001,10.003344,-0.51727,-0.024222379999999998,-0.00572287,-0.008384669999999999,1746801820263459
0.5358080000000001,9.993776,-0.5202600000000001,-0.02448856,-0.00505742,-0.007453039999999999,1746801840244459
0.550758,10.007530000000001,-0.51428,-0.02408929,-0.005589779999999999,-0.00785231,1746801860225259
0.55016,9.990786,-0.503516,-0.024222379999999998,-0.0047912399999999996,-0.00851776,1746801880206059
0.55315,9.997364,-0.524446,-0.023024569999999998,-0.004391969999999999,-0.00785231,1746801900187119
0.552552,9.999158,-0.52624,-0.023024569999999998,-0.004924329999999999,-0.007053769999999999,1746801920168099
0.540592,9.997364,-0.539396,-0.023423839999999998,-0.0053235999999999995,-0.007453039999999999,1746801940148919
0.539994,10.002148,-0.533416,-0.02408929,-0.004924329999999999,-0.00678759,1746801960129719
0.545974,9.993178,-0.527436,-0.02462165,-0.004391969999999999,-0.00785231,1746801980110499
0.54418,10.005736,-0.531622,-0.024355469999999997,-0.00505742,-0.0079854,1746802000091399
0.55016,9.99856,-0.510094,-0.023956199999999997,-0.0047912399999999996,-0.007719219999999999,1746802020071999
0.542984,10.007530000000001,-0.49514400000000003,-0.02369002,-0.00519051,-0.0079854,1746802040052639
0.542386,9.996766000000001,-0.528632,-0.02369002,-0.004525059999999999,-0.0079854,1746802060033379
0.548366,10.007530000000001,-0.521456,-0.023423839999999998,-0.00425888,-0.007719219999999999,1746802080014279
0.557336,9.996766000000001,-0.537602,-0.023157659999999997,-0.004391969999999999,-0.00785231,1746802099994979
0.5465720000000001,9.9866,-0.545376,-0.02408929,-0.00425888,-0.007586129999999999,1746802119975739
0.55315,9.997364,-0.51727,-0.02448856,-0.004525059999999999,-0.0079854,1746802139956539
0.5519540000000001,10.011118,-0.53521,-0.023956199999999997,-0.004924329999999999,-0.0079854,1746802159937519
0.5519540000000001,10.002148,-0.5358080000000001,-0.023556929999999997,-0.004525059999999999,-0.008384669999999999,1746802179918359
0.554944,9.999756,-0.517868,-0.022226029999999997,-0.0039927,-0.0079854,1746802199899099
0.549562,10.002148,-0.526838,-0.02369002,-0.0039927,-0.00785231,1746802219880019
0.5465720000000001,9.996766000000001,-0.522652,-0.023024569999999998,-0.00412579,-0.00851776,1746802239860899
0.544778,10.005736,-0.5083,-0.02369002,-0.0047912399999999996,-0.00825158,1746802259841659
0.550758,10.005138,-0.517868,-0.02462165,-0.005456689999999999,-0.007719219999999999,1746802279822459
0.554944,9.991982,-0.525642,-0.02408929,-0.0047912399999999996,-0.007453039999999999,1746802299803259
0.560326,9.99856,-0.527436,-0.023956199999999997,-0.004924329999999999,-0.0073199499999999995,1746802319784079
0.550758,9.991982,-0.527436,-0.024222379999999998,-0.004924329999999999,-0.007453039999999999,1746802339764879
0.54418,9.98361,-0.508898,-0.024355469999999997,-0.0047912399999999996,-0.008783939999999999,1746802359745679
0.547768,10.000354,-0.521456,-0.02462165,-0.00425888,-0.00718686,1746802379726479
0.561522,10.011118,-0.525044,-0.024222379999999998,-0.00505742,-0.008118489999999999,1746802399707339
0.543582,9.991982,-0.52624,-0.02462165,-0.004924329999999999,-0.008783939999999999,1746802419688239
0.541788,9.98959,-0.528034,-0.024222379999999998,-0.0047912399999999996,-0.00678759,1746802439669059
0.55315,10.00454,-0.5382,-0.024222379999999998,-0.005456689999999999,-0.00785231,1746802459649799
0.557336,10.008726,-0.519662,-0.02408929,-0.00465815,-0.0079854,1746802479630539
0.554944,10.012912,-0.510094,-0.023956199999999997,-0.004391969999999999,-0.00891703,1746802499611379
0.539396,9.997364,-0.518466,-0.024355469999999997,-0.00519051,-0.007453039999999999,1746802519592219
0.534612,9.996766000000001,-0.536406,-0.023823109999999998,-0.00519051,-0.00825158,1746802539572779
0.557934,10.007530000000001,-0.513682,-0.023823109999999998,-0.004924329999999999,-0.00825158,1746802559553579
0.540592,10.00155,-0.515476,-0.02462165,-0.00465815,-0.00825158,1746801580534379
0.55315,9.993178,-0.501124,-0.02448856,-0.0047912399999999996,-0.0079854,1746801600515139
0.552552,9.990786,-0.50531,-0.02462165,-0.005589779999999999,-0.00825158,1746801620495959
0.560924,10.000952,-0.532818,-0.02448856,-0.00519051,-0.0079854,1746801640476799
0.5382,10.005736,-0.516074,-0.024887829999999996,-0.00505742,-0.008384669999999999,1746801660457539
0.538798,9.987796,-0.525044,-0.02369002,-0.00505742,-0.008118489999999999,1746801680438459
0.557336,10.002148,-0.512486,-0.023423839999999998,-0.00519051,-0.008384669999999999,1746801700419279
0.55614,10.014706,-0.516074,-0.023556929999999997,-0.004924329999999999,-0.0079854,1746801720399999
0.558532,9.993776,-0.507104,-0.023956199999999997,-0.0053235999999999995,-0.007453039999999999,1746801740380859
0.549562,9.996168,-0.491556,-0.02448856,-0.00519051,-0.008118489999999999,1746801760361559
0.554346,10.00155,-0.531622,-0.024355469999999997,-0.005456689999999999,-0.00785231,1746801780342339
0.542386,9.996168,-0.51129,-0.024222379999999998,-0.00519051,-0.007719219999999999,1746801800322839
0.545376,10.005138,-0.5358080000000001,-0.023556929999999997,-0.00572287,-0.00785231,1746801820303579
0.537004,10.006334,-0.512486,-0.02329075,-0.00505742,-0.00865085,1746801840284439
0.541788,9.99258,-0.531024,-0.023956199999999997,-0.00519051,-0.00865085,1746801860265099
0.540592,9.990188,-0.5358080000000001,-0.024222379999999998,-0.0047912399999999996,-0.007719219999999999,1746801880245839
0.533416,9.994972,-0.525044,-0.02408929,-0.0053235999999999995,-0.009050119999999998,1746801900226579
0.556738,10.006334,-0.518466,-0.02448856,-0.005456689999999999,-0.0093163,1746801920207519
0.563914,9.997962,-0.517868,-0.023956199999999997,-0.00625523,-0.0079854,1746801940188379
0.566306,10.00454,-0.494546,-0.02369002,-0.005989049999999999,-0.007719219999999999,1746801960169159
0.548964,9.986002000000001,-0.517868,-0.02369002,-0.0058559599999999995,-0.00851776,1746801980149999
0.5465720000000001,9.99557,-0.518466,-0.02408929,-0.0053235999999999995,-0.008783939999999999,1746802000130799
0.541788,10.003942,-0.5358080000000001,-0.024754739999999997,-0.0047912399999999996,-0.007453039999999999,1746802020111639
0.542984,9.997364,-0.538798,-0.02408929,-0.00412579,-0.007719219999999999,1746802040092359
0.545376,10.005736,-0.51727,-0.023823109999999998,-0.005989049999999999,-0.007719219999999999,1746802060073079
0.536406,9.99856,-0.5083,-0.023956199999999997,-0.00625523,-0.009050119999999998,1746802080053759
0.5465720000000001,10.01052,-0.527436,-0.024355469999999997,-0.0053235999999999995,-0.0093163,1746802100034639
0.538798,10.012912,-0.534612,-0.023956199999999997,-0.005589779999999999,-0.007719219999999999,1746802120015359
0.541788,9.999158,-0.544778,-0.023423839999999998,-0.005456689999999999,-0.00825158,1746802139996199
0.55614,9.984806,-0.513682,-0.023823109999999998,-0.00505742,-0.00825158,1746802159977219
0.545974,10.00454,-0.527436,-0.023956199999999997,-0.00425888,-0.0093163,1746802179958079
0.5382,9.997364,-0.524446,-0.02408929,-0.0039927,-0.0079854,1746802199939099
0.560326,9.99557,-0.528034,-0.02369002,-0.005456689999999999,-0.006920679999999999,1746802219919959
0.537602,10.008726,-0.5148780000000001,-0.02462165,-0.00625523,-0.007453039999999999,1746802239900839
0.549562,10.012314,-0.5202600000000001,-0.024754739999999997,-0.0047912399999999996,-0.0079854,1746802259881639
0.545974,10.005138,-0.52923,-0.023956199999999997,-0.00519051,-0.007719219999999999,1746802279862359
0.55614,9.986002000000001,-0.548964,-0.023956199999999997,-0.0053235999999999995,-0.008118489999999999,1746802299843139
0.548366,10.000952,-0.527436,-0.02329075,-0.005456689999999999,-0.00851776,1746802319823879
0.545376,10.005138,-0.506506,-0.024355469999999997,-0.0053235999999999995,-0.0079854,1746802339804639
0.548964,9.997962,-0.490958,-0.024754739999999997,-0.005456689999999999,-0.0079854,1746802359785399
0.55315,9.996766000000001,-0.541788,-0.02448856,-0.0047912399999999996,-0.008118489999999999,1746802379766199
0.545376,9.993776,-0.53222,-0.02369002,-0.00505742,-0.0073199499999999995,1746802399746999
0.548964,9.997364,-0.50232,-0.02329075,-0.00519051,-0.0079854,1746802419727839
0.556738,9.996168,-0.538798,-0.023024569999999998,-0.005989049999999999,-0.009183209999999999,1746802439708619
0.555542,10.000952,-0.520858,-0.02369002,-0.006388319999999999,-0.00891703,1746802459689379
0.555542,10.003344,-0.520858,-0.02408929,-0.00612214,-0.007719219999999999,1746802479670239
0.548366,10.006334,-0.522054,-0.023823109999999998,-0.004525059999999999,-0.007719219999999999,1746802499651039
0.549562,9.993178,-0.495742,-0.024355469999999997,-0.00625523,-0.008118489999999999,1746802519631699
0.566306,9.997962,-0.511888,-0.024355469999999997,-0.0053235999999999995,-0.00718686,1746802539612539
0.5411900000000001,9.994374,-0.5382,-0.02289148,-0.005589779999999999,-0.008118489999999999,1746802559593179
0.550758,10.003344,-0.5382,-0.023956199999999997,-0.00519051,-0.00891703,1746801580574059
0.545376,10.009922,-0.52923,-0.023956199999999997,-0.00612214,-0.008384669999999999,1746801600554799
0.54418,9.99557,-0.510692,-0.02369002,-0.00625523,-0.0079854,1746801620535459
0.554346,10.005736,-0.5358080000000001,-0.023956199999999997,-0.0053235999999999995,-0.00785231,1746801640516259
0.545974,10.007530000000001,-0.543582,-0.023423839999999998,-0.0047912399999999996,-0.00851776,1746801660496939
0.537004,9.997962,-0.506506,-0.023823109999999998,-0.004525059999999999,-0.00851776,1746801680477659
0.548366,10.007530000000001,-0.537602,-0.023823109999999998,-0.0053235999999999995,-0.007719219999999999,1746801700458479
0.545376,10.020088,-0.517868,-0.024887829999999996,-0.0058559599999999995,-0.007586129999999999,1746801720439239
0.541788,10.00155,-0.526838,-0.024222379999999998,-0.0053235999999999995,-0.00851776,1746801740420059
0.5519540000000001,10.006932,-0.522054,-0.023956199999999997,-0.005456689999999999,-0.0079854,1746801760400919
0.548964,10.00454,-0.525044,-0.024887829999999996,-0.005456689999999999,-0.00865085,1746801780381739
0.537004,9.9866,-0.521456,-0.023823109999999998,-0.00425888,-0.007719219999999999,1746801800362279
0.54418,9.997364,-0.513682,-0.024222379999999998,-0.0053235999999999995,-0.007053769999999999,1746801820343039
0.552552,9.996168,-0.523848,-0.023556929999999997,-0.00625523,-0.007453039999999999,1746801840323539
0.553748,10.009324,-0.522652,-0.023157659999999997,-0.0058559599999999995,-0.0073199499999999995,1746801860304239
0.539396,10.009324,-0.516672,-0.023956199999999997,-0.004391969999999999,-0.00785231,1746801880285039
0.554346,9.997962,-0.521456,-0.024355469999999997,-0.00465815,-0.00825158,1746801900265759
0.549562,9.990786,-0.522054,-0.024222379999999998,-0.00425888,-0.007586129999999999,1746801920246499
0.543582,9.999756,-0.533416,-0.024222379999999998,-0.00465815,-0.008118489999999999,1746801940227259
0.55315,9.99557,-0.531024,-0.024754739999999997,-0.00425888,-0.00825158,1746801960208039
0.54418,9.990188,-0.516074,-0.024355469999999997,-0.004924329999999999,-0.006654499999999999,1746801980188839
0.547768,10.00454,-0.532818,-0.024222379999999998,-0.004924329999999999,-0.007586129999999999,1746802000169519
0.549562,9.991982,-0.510094,-0.02408929,-0.00412579,-0.0073199499999999995,1746802020150239
0.537004,9.999158,-0.49514400000000003,-0.02369002,-0.00519051,-0.00718686,1746802040131059
0.540592,10.00155,-0.508898,-0.023556929999999997,-0.0053235999999999995,-0.006388319999999999,1746802060111639
0.5465720000000001,9.99258,-0.522652,-0.023157659999999997,-0.005589779999999999,-0.007719219999999999,1746802080092419
0.554346,9.99557,-0.52624,-0.024355469999999997,-0.004924329999999999,-0.00718686,1746802100073179
0.562718,10.012314,-0.516074,-0.023823109999999998,-0.0053235999999999995,-0.007453039999999999,1746802120053819
0.54717,9.997364,-0.5202600000000001,-0.02448856,-0.005456689999999999,-0.00785231,1746802140034519
0.53521,9.99856,-0.504712,-0.023956199999999997,-0.00519051,-0.007719219999999999,1746802160015379
0.548366,9.991982,-0.527436,-0.024355469999999997,-0.00505742,-0.00678759,1746802179996019
0.537602,10.009324,-0.515476,-0.02462165,-0.004391969999999999,-0.0073199499999999995,1746802199976759
0.54418,9.990188,-0.531622,-0.02462165,-0.0053235999999999995,-0.00785231,1746802219957499
0.545974,10.00155,-0.507702,-0.023956199999999997,-0.00519051,-0.008118489999999999,1746802239938439
0.548366,10.003942,-0.517868,-0.02502092,-0.004924329999999999,-0.008384669999999999,1746802259919299
0.552552,10.005138,-0.528034,-0.024355469999999997,-0.005456689999999999,-0.008384669999999999,1746802279900079
0.548964,9.99557,-0.532818,-0.023956199999999997,-0.00465815,-0.007586129999999999,1746802299880759
0.5519540000000001,9.999756,-0.530426,-0.02408929,-0.005589779999999999,-0.007586129999999999,1746802319861679
0.537602,10.000952,-0.501124,-0.024355469999999997,-0.004924329999999999,-0.00785231,1746802339842499
0.554346,9.994374,-0.511888,-0.02408929,-0.00625523,-0.007453039999999999,1746802359823419
0.545974,10.005736,-0.527436,-0.02502092,-0.0053235999999999995,-0.007719219999999999,1746802379804419
0.55614,10.009922,-0.508898,-0.025287099999999996,-0.00505742,-0.007719219999999999,1746802399785179
0.554944,10.00454,-0.501124,-0.02462165,-0.00519051,-0.007453039999999999,1746802419766119
0.552552,9.999756,-0.520858,-0.023823109999999998,-0.005456689999999999,-0.007719219999999999,1746802439747059
0.547768,10.000354,-0.516672,-0.023024569999999998,-0.00519051,-0.00851776,1746802459727919
0.550758,10.007530000000001,-0.523848,-0.023157659999999997,-0.00465815,-0.00825158,1746802479708759
0.557336,10.007530000000001,-0.522652,-0.02369002,-0.005589779999999999,-0.007719219999999999,1746802499689459
0.55016,10.000952,-0.519064,-0.02408929,-0.00572287,-0.007586129999999999,1746802519670119
0.560326,9.994972,-0.5083,-0.02462165,-0.00519051,-0.00825158,1746802539650979
0.562718,10.003942,-0.5148780000000001,-0.02462165,-0.004924329999999999,-0.0079854,1746802559631699
0.543582,10.01052,-0.522054,-0.024355469999999997,-0.0047912399999999996,-0.007586129999999999,1746801580612359
0.554944,10.007530000000001,-0.52325,-0.023423839999999998,-0.0058559599999999995,-0.008118489999999999,1746801600593239
0.56212,10.008128,-0.528034,-0.023823109999999998,-0.004391969999999999,-0.007719219999999999,1746801620574099
0.548366,9.984806,-0.519662,-0.02408929,-0.005456689999999999,-0.008118489999999999,1746801640555059
0.549562,9.988394,-0.527436,-0.024355469999999997,-0.005589779999999999,-0.007053769999999999,1746801660535999
0.547768,10.00454,-0.5519540000000001,-0.024355469999999997,-0.005456689999999999,-0.00785231,1746801680516899
0.558532,9.990786,-0.519662,-0.02329075,-0.00612214,-0.007053769999999999,1746801700497939
0.533416,10.015304,-0.513084,-0.02448856,-0.00519051,-0.00718686,1746801720478699
0.55016,10.015902,-0.5358080000000001,-0.02462165,-0.005589779999999999,-0.00825158,1746801740459439
0.5465720000000001,9.997364,-0.527436,-0.023823109999999998,-0.005456689999999999,-0.007053769999999999,1746801760440119
0.554346,10.003344,-0.531024,-0.02329075,-0.00519051,-0.0079854,1746801780421039
0.55315,10.011118,-0.51428,-0.023423839999999998,-0.006388319999999999,-0.00825158,1746801800401779
0.557336,10.00454,-0.522054,-0.023956199999999997,-0.00519051,-0.0079854,1746801820382559
0.5358080000000001,9.991384,-0.52624,-0.024355469999999997,-0.00425888,-0.008384669999999999,1746801840363059
0.56212,10.005736,-0.51727,-0.02408929,-0.00465815,-0.00865085,1746801860343839
0.559728,9.996168,-0.512486,-0.024222379999999998,-0.004924329999999999,-0.00851776,1746801880324339
0.560326,9.987796,-0.498134,-0.02408929,-0.00465815,-0.008384669999999999,1746801900305059
0.561522,10.012314,-0.508898,-0.024754739999999997,-0.00465815,-0.00825158,1746801920285939
0.553748,9.999756,-0.538798,-0.02408929,-0.0053235999999999995,-0.007719219999999999,1746801940266739
0.551356,10.003344,-0.531622,-0.023956199999999997,-0.005456689999999999,-0.00851776,1746801960248179
0.556738,10.005138,-0.525642,-0.025154009999999997,-0.004924329999999999,-0.00825158,1746801980228739
0.560924,9.991384,-0.534612,-0.023823109999999998,-0.0053235999999999995,-0.00865085,1746802000209239
0.55614,9.999158,-0.5358080000000001,-0.02329075,-0.005989049999999999,-0.008118489999999999,1746802020189559
0.537602,9.999158,-0.516074,-0.024355469999999997,-0.00572287,-0.00785231,1746802040170259
0.55016,10.003942,-0.519064,-0.02408929,-0.00572287,-0.007053769999999999,1746802060150699
0.545974,9.994972,-0.5411900000000001,-0.023823109999999998,-0.00505742,-0.007719219999999999,1746802080131079
0.550758,10.005138,-0.529828,-0.02369002,-0.00465815,-0.007586129999999999,1746802100111619
0.545376,10.00155,-0.5083,-0.02462165,-0.0053235999999999995,-0.007586129999999999,1746802120092199
0.547768,10.023676,-0.5382,-0.02462165,-0.005589779999999999,-0.007586129999999999,1746802140073179
0.54418,10.008726,-0.53222,-0.02408929,-0.0047912399999999996,-0.007453039999999999,1746802160054099
0.547768,10.000952,-0.51428,-0.023024569999999998,-0.00519051,-0.007719219999999999,1746802180034819
0.54717,9.996766000000001,-0.533416,-0.023157659999999997,-0.005589779999999999,-0.008783939999999999,1746802200015499
0.531024,9.993776,-0.54717,-0.023956199999999997,-0.00519051,-0.00851776,1746802219996239
0.545974,10.008128,-0.525044,-0.024222379999999998,-0.0047912399999999996,-0.008783939999999999,1746802239976739
0.55016,9.99856,-0.519662,-0.023556929999999997,-0.00505742,-0.00718686,1746802259957159
0.55016,10.005138,-0.529828,-0.02408929,-0.00519051,-0.00678759,1746802279938139
0.548964,10.01052,-0.531622,-0.024754739999999997,-0.005989049999999999,-0.0073199499999999995,1746802299918819
0.554346,9.990786,-0.515476,-0.02369002,-0.0053235999999999995,-0.008118489999999999,1746802319899339
0.554346,9.994374,-0.519064,-0.02369002,-0.004924329999999999,-0.00865085,1746802339879799
0.557336,9.987198,-0.51727,-0.02408929,-0.00612214,-0.008118489999999999,1746802359860639
0.552552,9.99258,-0.505908,-0.02448856,-0.005589779999999999,-0.00785231,1746802379841279
0.533416,9.991384,-0.521456,-0.024754739999999997,-0.005589779999999999,-0.008118489999999999,1746802399822159
0.543582,9.99856,-0.528632,-0.02408929,-0.004924329999999999,-0.00865085,1746802419802739
0.557336,9.991982,-0.537004,-0.023823109999999998,-0.0047912399999999996,-0.00825158,1746802439783299
0.553748,10.000952,-0.521456,-0.024222379999999998,-0.00505742,-0.007453039999999999,1746802459764099
0.542386,9.98361,-0.513084,-0.02462165,-0.0047912399999999996,-0.0079854,1746802479744919
0.553748,10.002148,-0.524446,-0.024355469999999997,-0.0053235999999999995,-0.00825158,1746802499725499
0.55016,10.011118,-0.518466,-0.02408929,-0.004924329999999999,-0.00825158,1746802519706199
0.540592,9.996766000000001,-0.51727,-0.023556929999999997,-0.00519051,-0.007453039999999999,1746802539686819
0.536406,9.997962,-0.51428,-0.023956199999999997,-0.0047912399999999996,-0.007053769999999999,1746802559667239
0.5358080000000001,10.009324,-0.547768,-0.024222379999999998,-0.005589779999999999,-0.0073199499999999995,1746802579647879
0.552552,10.005138,-0.55913,-0.023956199999999997,-0.005456689999999999,-0.00865085,1746801600627659
0.548366,10.012314,-0.522652,-0.023956199999999997,-0.0047912399999999996,-0.0079854,1746801620608359
0.5382,9.999158,-0.519662,-0.023024569999999998,-0.00519051,-0.00678759,1746801640589019
0.537602,10.015304,-0.507702,-0.023956199999999997,-0.00572287,-0.008118489999999999,1746801660569739
0.545376,9.99856,-0.52325,-0.023556929999999997,-0.004924329999999999,-0.00718686,1746801680550259
0.536406,10.006932,-0.513682,-0.023956199999999997,-0.004525059999999999,-0.007053769999999999,1746801700530819
0.529828,9.99856,-0.528632,-0.024754739999999997,-0.005456689999999999,-0.008118489999999999,1746801720511479
0.549562,10.011716,-0.525044,-0.02448856,-0.00519051,-0.00785231,1746801740492119
0.54717,9.999158,-0.530426,-0.023556929999999997,-0.00519051,-0.007453039999999999,1746801760472659
0.53521,10.008128,-0.5202600000000001,-0.023157659999999997,-0.00572287,-0.007586129999999999,1746801780453039
0.54717,9.993776,-0.505908,-0.023556929999999997,-0.00412579,-0.00785231,1746801800433419
0.5411900000000001,9.994374,-0.531024,-0.025287099999999996,-0.004525059999999999,-0.0079854,1746801820413919
0.548366,9.996766000000001,-0.516672,-0.02462165,-0.004525059999999999,-0.0079854,1746801840394519
0.550758,9.994374,-0.540592,-0.023956199999999997,-0.00412579,-0.007719219999999999,1746801860375119
0.536406,10.008726,-0.504114,-0.02408929,-0.004924329999999999,-0.00851776,1746801880355679
0.55913,10.009922,-0.504712,-0.024887829999999996,-0.005589779999999999,-0.00891703,1746801900336359
0.552552,10.003942,-0.529828,-0.02289148,-0.004924329999999999,-0.00851776,1746801920316419
0.55016,10.002746,-0.5148780000000001,-0.023423839999999998,-0.0047912399999999996,-0.008783939999999999,1746801940297179
0.545974,10.006334,-0.524446,-0.024222379999999998,-0.00412579,-0.008118489999999999,1746801960277719
0.54717,10.009324,-0.519064,-0.023556929999999997,-0.00519051,-0.00678759,1746801980258339
0.550758,9.994972,-0.507702,-0.023024569999999998,-0.005589779999999999,-0.00718686,1746802000238719
0.539396,9.990786,-0.5148780000000001,-0.023157659999999997,-0.005989049999999999,-0.009183209999999999,1746802020219299
0.549562,10.006334,-0.522652,-0.02369002,-0.005456689999999999,-0.00785231,1746802040199759
0.554944,9.991384,-0.528632,-0.023823109999999998,-0.0053235999999999995,-0.007719219999999999,1746802060180259
0.552552,9.993776,-0.51428,-0.02448856,-0.005589779999999999,-0.00825158,1746802080160939
0.550758,9.997962,-0.518466,-0.02448856,-0.0047912399999999996,-0.007586129999999999,1746802100141359
0.545376,10.020686,-0.528632,-0.023423839999999998,-0.00505742,-0.007053769999999999,1746802120121979
0.553748,9.999158,-0.53222,-0.02462165,-0.0053235999999999995,-0.007719219999999999,1746802140102439
0.545974,9.99856,-0.511888,-0.02408929,-0.005456689999999999,-0.00678759,1746802160082999
0.5382,10.008128,-0.513084,-0.024355469999999997,-0.005456689999999999,-0.007719219999999999,1746802180063579
0.543582,10.003344,-0.501722,-0.024355469999999997,-0.00465815,-0.007719219999999999,1746802200044159
0.538798,10.003942,-0.5202600000000001,-0.023956199999999997,-0.0053235999999999995,-0.0079854,1746802220024819
0.5519540000000001,10.006932,-0.51428,-0.02329075,-0.0053235999999999995,-0.00825158,1746802240005419
0.542386,10.01351,-0.523848,-0.023823109999999998,-0.004525059999999999,-0.00891703,1746802259985999
0.548964,10.006334,-0.524446,-0.023823109999999998,-0.00572287,-0.008384669999999999,1746802279966679
0.542386,10.00454,-0.505908,-0.02329075,-0.005989049999999999,-0.00785231,1746802299947279
0.54418,9.991982,-0.51727,-0.02408929,-0.00465815,-0.007586129999999999,1746802319928059
0.553748,10.003344,-0.528632,-0.024355469999999997,-0.004924329999999999,-0.00785231,1746802339908739
0.547768,10.014108,-0.511888,-0.024355469999999997,-0.00572287,-0.00825158,1746802359889319
0.542386,9.993178,-0.526838,-0.023956199999999997,-0.0053235999999999995,-0.007586129999999999,1746802379869979
0.548366,9.99557,-0.52325,-0.023956199999999997,-0.004924329999999999,-0.00865085,1746802399850559
0.537004,9.999756,-0.528632,-0.024887829999999996,-0.00412579,-0.0079854,1746802419831059
0.55614,9.987796,-0.531024,-0.02448856,-0.00519051,-0.008118489999999999,1746802439811699
0.548366,9.999756,-0.501124,-0.024355469999999997,-0.005456689999999999,-0.009582479999999999,1746802459792259
0.542984,10.014108,-0.493948,-0.023423839999999998,-0.0053235999999999995,-0.0079854,1746802479772919
0.545376,10.012314,-0.516672,-0.02408929,-0.00572287,-0.0079854,1746802499753479
0.541788,10.007530000000001,-0.522054,-0.023157659999999997,-0.005589779999999999,-0.008384669999999999,1746802519734219
0.549562,10.008726,-0.51129,-0.02329075,-0.00612214,-0.007453039999999999,1746802539714779
0.534014,10.006334,-0.52923,-0.023956199999999997,-0.00612214,-0.008384669999999999,1746802559695459
0.556738,9.985404,-0.534612,-0.02462165,-0.0058559599999999995,-0.008783939999999999,1746802579675739
0.543582,9.999756,-0.503516,-0.023823109999999998,-0.00572287,-0.00825158,1746801600656379
0.54717,9.997364,-0.520858,-0.02462165,-0.005456689999999999,-0.007719219999999999,1746801620636919
0.553748,10.002148,-0.529828,-0.023024569999999998,-0.005989049999999999,-0.00825158,1746801640617519
0.556738,10.00454,-0.52624,-0.023556929999999997,-0.00572287,-0.0079854,1746801660598259
0.553748,10.00155,-0.525642,-0.023556929999999997,-0.006521409999999999,-0.00825158,1746801680578879
0.549562,9.996168,-0.510094,-0.022625299999999997,-0.0058559599999999995,-0.008384669999999999,1746801700559479
0.559728,10.00155,-0.52923,-0.02369002,-0.004924329999999999,-0.007453039999999999,1746801720540079
0.564512,10.014706,-0.529828,-0.02369002,-0.00519051,-0.0073199499999999995,1746801740520759
0.557934,10.009324,-0.5202600000000001,-0.023556929999999997,-0.005589779999999999,-0.007586129999999999,1746801760501359
0.554944,9.993776,-0.507702,-0.02408929,-0.00505742,-0.0079854,1746801780481979
0.54717,9.99557,-0.502918,-0.023823109999999998,-0.00519051,-0.00785231,1746801800462619
0.542984,9.996766000000001,-0.498134,-0.02462165,-0.00465815,-0.00891703,1746801820443219
0.548964,9.999158,-0.503516,-0.02369002,-0.00505742,-0.009050119999999998,1746801840423819
0.543582,10.014706,-0.534612,-0.023823109999999998,-0.005456689999999999,-0.0079854,1746801860404279
0.550758,10.01052,-0.525642,-0.023024569999999998,-0.0053235999999999995,-0.00865085,1746801880384879
0.554944,9.996766000000001,-0.513682,-0.024222379999999998,-0.00519051,-0.008118489999999999,1746801900365479
0.557934,9.99856,-0.512486,-0.022758389999999996,-0.0047912399999999996,-0.00865085,1746801920346159
0.54418,10.002746,-0.53222,-0.024222379999999998,-0.0058559599999999995,-0.009050119999999998,1746801940326739
0.54418,10.00155,-0.502918,-0.023556929999999997,-0.00425888,-0.00851776,1746801960307219
0.557336,10.002746,-0.527436,-0.024355469999999997,-0.0047912399999999996,-0.006388319999999999,1746801980287819
0.5519540000000001,9.996168,-0.5465720000000001,-0.02408929,-0.004525059999999999,-0.0073199499999999995,1746802000268439
0.549562,10.000354,-0.524446,-0.02448856,-0.00519051,-0.008118489999999999,1746802020248959
0.560924,9.994972,-0.513682,-0.024887829999999996,-0.00465815,-0.008384669999999999,1746802040229579
0.55016,10.007530000000001,-0.533416,-0.024754739999999997,-0.00519051,-0.006920679999999999,1746802060210219
0.5382,9.996168,-0.542386,-0.024222379999999998,-0.005456689999999999,-0.007053769999999999,1746802080190839
0.552552,10.005736,-0.516074,-0.023423839999999998,-0.0047912399999999996,-0.008783939999999999,1746802100171399
0.542984,9.99557,-0.545376,-0.024222379999999998,-0.005589779999999999,-0.008118489999999999,1746802120151939
0.534612,10.00454,-0.51428,-0.023556929999999997,-0.005456689999999999,-0.007453039999999999,1746802140132579
0.557934,9.996168,-0.51428,-0.02369002,-0.0047912399999999996,-0.00678759,1746802160113079
0.55016,10.000952,-0.530426,-0.02462165,-0.004924329999999999,-0.0079854,1746802180093719
0.544778,9.99856,-0.526838,-0.024355469999999997,-0.0053235999999999995,-0.008384669999999999,1746802200074259
0.554944,10.002148,-0.512486,-0.025154009999999997,-0.004924329999999999,-0.008118489999999999,1746802220054799
0.560326,9.997962,-0.53521,-0.02462165,-0.00505742,-0.00825158,1746802240035339
0.551356,9.991982,-0.5358080000000001,-0.024222379999999998,-0.005989049999999999,-0.008384669999999999,1746802260015919
0.548964,10.003942,-0.513682,-0.023423839999999998,-0.00519051,-0.00851776,1746802279996579
