ax,ay,az,rx,ry,rz,timestamp
0.354614,-9.567402,-0.686504,-0.02542019,-0.0047912399999999996,-0.006654499999999999,1746801434582917
0.360594,-9.570392,-0.684112,-0.024355469999999997,-0.00412579,-0.007053769999999999,1746801454556397
0.351624,-9.576372000000001,-0.6942780000000001,-0.024222379999999998,-0.004924329999999999,-0.00678759,1746801474529877
0.365976,-9.568598,-0.67574,-0.024355469999999997,-0.00519051,-0.007586129999999999,1746801494503217
0.365378,-9.567402,-0.6996600000000001,-0.024355469999999997,-0.00425888,-0.007586129999999999,1746801514476617
0.34385,-9.566206,-0.688896,-0.02502092,-0.0039927,-0.00718686,1746801534449997
0.355212,-9.573382,-0.68471,-0.024222379999999998,-0.00519051,-0.0073199499999999995,1746801554423417
0.348634,-9.574578,-0.688896,-0.024222379999999998,-0.00412579,-0.006521409999999999,1746801574396837
0.359398,-9.570392,-0.6942780000000001,-0.02448856,-0.0047912399999999996,-0.00612214,1746801594370177
0.35581,-9.552452,-0.709228,-0.024222379999999998,-0.0053235999999999995,-0.007053769999999999,1746801614343497
0.342056,-9.56202,-0.682916,-0.02448856,-0.00519051,-0.007586129999999999,1746801634316997
0.35581,-9.575774000000001,-0.67275,-0.025154009999999997,-0.005456689999999999,-0.007453039999999999,1746801654290517
0.34983000000000003,-9.564412,-0.677534,-0.024754739999999997,-0.00519051,-0.006654499999999999,1746801674263977
0.35282,-9.564412,-0.70265,-0.024222379999999998,-0.00572287,-0.006654499999999999,1746801694237377
0.342056,-9.565010000000001,-0.676936,-0.024887829999999996,-0.005989049999999999,-0.0073199499999999995,1746801714210877
0.361192,-9.579362,-0.683514,-0.02408929,-0.004924329999999999,-0.007586129999999999,1746801734184457
0.357006,-9.55903,-0.695474,-0.023823109999999998,-0.0047912399999999996,-0.00785231,1746801754158077
0.351624,-9.570392,-0.6679660000000001,-0.024754739999999997,-0.004924329999999999,-0.006654499999999999,1746801774131417
0.340262,-9.55903,-0.67574,-0.02502092,-0.0047912399999999996,-0.007586129999999999,1746801794104797
0.348036,-9.565608000000001,-0.693082,-0.025553279999999998,-0.00465815,-0.0073199499999999995,1746801814078217
0.35581,-9.575774000000001,-0.684112,-0.02448856,-0.00519051,-0.006920679999999999,1746801834051717
0.354016,-9.565608000000001,-0.684112,-0.02448856,-0.004924329999999999,-0.00785231,1746801854025257
0.36298600000000003,-9.566206,-0.663182,-0.02462165,-0.00465815,-0.0079854,1746801873998697
0.346242,-9.565010000000001,-0.68471,-0.024887829999999996,-0.00505742,-0.00785231,1746801893972297
0.345644,-9.575774000000001,-0.686504,-0.023956199999999997,-0.00505742,-0.006521409999999999,1746801913945697
0.345644,-9.568598,-0.681122,-0.024222379999999998,-0.0053235999999999995,-0.0073199499999999995,1746801933919117
0.356408,-9.566206,-0.687102,-0.024887829999999996,-0.00612214,-0.0079854,1746801953892637
0.346242,-9.559628,-0.682318,-0.02502092,-0.0047912399999999996,-0.00825158,1746801973866397
0.34684,-9.557834,-0.702052,-0.024754739999999997,-0.004525059999999999,-0.00785231,1746801993839857
0.329498,-9.563216,-0.698464,-0.025154009999999997,-0.00412579,-0.00718686,1746802013813517
0.352222,-9.568,-0.691886,-0.024887829999999996,-0.00465815,-0.007053769999999999,1746802033787277
0.352222,-9.562618,-0.697268,-0.024887829999999996,-0.005589779999999999,-0.006388319999999999,1746802053760757
0.35581,-9.566206,-0.68172,-0.023823109999999998,-0.004525059999999999,-0.006920679999999999,1746802073734137
0.365976,-9.55903,-0.69667,-0.023956199999999997,-0.00505742,-0.0073199499999999995,1746802093707717
0.352222,-9.572784,-0.69368,-0.02502092,-0.004924329999999999,-0.007053769999999999,1746802113681357
0.35282,-9.566206,-0.693082,-0.02462165,-0.00505742,-0.007586129999999999,1746802133655077
0.358202,-9.55604,-0.700258,-0.025553279999999998,-0.0053235999999999995,-0.00678759,1746802153628797
0.350428,-9.560226,-0.695474,-0.02408929,-0.00612214,-0.006920679999999999,1746802173602577
0.355212,-9.566206,-0.710424,-0.024222379999999998,-0.0058559599999999995,-0.0073199499999999995,1746802193576277
0.36179,-9.561422,-0.691886,-0.023956199999999997,-0.0038596099999999994,-0.006920679999999999,1746802213550017
0.359398,-9.563216,-0.701454,-0.02408929,-0.005589779999999999,-0.00678759,1746802233523797
0.345644,-9.558432,-0.691886,-0.02408929,-0.00465815,-0.006521409999999999,1746802253497437
0.346242,-9.573382,-0.693082,-0.023956199999999997,-0.00505742,-0.00785231,1746802273470937
0.345046,-9.571588,-0.6877,-0.023956199999999997,-0.005989049999999999,-0.00865085,1746802293444537
0.34684,-9.563814,-0.679328,-0.023823109999999998,-0.0047912399999999996,-0.00785231,1746802313417997
0.344448,-9.584744,-0.685308,-0.02408929,-0.005456689999999999,-0.00718686,1746802333391497
0.34983000000000003,-9.568,-0.704444,-0.024355469999999997,-0.0053235999999999995,-0.006920679999999999,1746802353364817
0.354016,-9.562618,-0.699062,-0.024754739999999997,-0.00519051,-0.0079854,1746802373338117
0.358202,-9.559628,-0.684112,-0.024754739999999997,-0.00572287,-0.006521409999999999,1746802393311337
0.359996,-9.556638,-0.6996600000000001,-0.02462165,-0.00612214,-0.00718686,1746801414284877
0.354614,-9.566206,-0.688896,-0.02462165,-0.00572287,-0.0073199499999999995,1746801434258217
0.364182,-9.572784,-0.663182,-0.02462165,-0.00612214,-0.006654499999999999,1746801454231497
0.3588,-9.578166,-0.700856,-0.024355469999999997,-0.004391969999999999,-0.007053769999999999,1746801474204837
0.358202,-9.576372000000001,-0.68172,-0.02502092,-0.004391969999999999,-0.007586129999999999,1746801494178217
0.349232,-9.568,-0.67574,-0.02462165,-0.005589779999999999,-0.0079854,1746801514151757
0.36179,-9.581156,-0.67275,-0.024887829999999996,-0.004924329999999999,-0.00718686,1746801534124957
0.359996,-9.55604,-0.668564,-0.025952549999999998,-0.004391969999999999,-0.00825158,1746801554098397
0.33488,-9.569794,-0.697866,-0.02462165,-0.00519051,-0.007453039999999999,1746801574071777
0.359398,-9.569196,-0.660192,-0.024754739999999997,-0.00412579,-0.006521409999999999,1746801594044957
0.357006,-9.572186,-0.690092,-0.025154009999999997,-0.004391969999999999,-0.007453039999999999,1746801614018137
0.354016,-9.580558,-0.670358,-0.024887829999999996,-0.00519051,-0.0073199499999999995,1746801633991537
0.34086,-9.558432,-0.683514,-0.024887829999999996,-0.004391969999999999,-0.0073199499999999995,1746801653964857
0.364182,-9.561422,-0.704444,-0.02462165,-0.0053235999999999995,-0.00718686,1746801673937957
0.352222,-9.581754,-0.679926,-0.02448856,-0.00505742,-0.007586129999999999,1746801693911317
0.352222,-9.561422,-0.6877,-0.024222379999999998,-0.005456689999999999,-0.0073199499999999995,1746801713884677
0.346242,-9.566206,-0.68471,-0.024754739999999997,-0.00519051,-0.007719219999999999,1746801733858537
0.354016,-9.567402,-0.676936,-0.02502092,-0.0047912399999999996,-0.00785231,1746801753831677
0.35282,-9.576372000000001,-0.694876,-0.023823109999999998,-0.00425888,-0.0073199499999999995,1746801773804937
0.359996,-9.565010000000001,-0.691288,-0.023956199999999997,-0.0047912399999999996,-0.006920679999999999,1746801793778177
0.36298600000000003,-9.568598,-0.692484,-0.02502092,-0.00465815,-0.006388319999999999,1746801813751337
0.348634,-9.574578,-0.69667,-0.025287099999999996,-0.0038596099999999994,-0.007053769999999999,1746801833724477
0.352222,-9.568,-0.687102,-0.023823109999999998,-0.00505742,-0.007453039999999999,1746801853697617
0.364182,-9.569794,-0.665574,-0.023823109999999998,-0.004391969999999999,-0.008118489999999999,1746801873670657
0.351026,-9.560824,-0.686504,-0.024355469999999997,-0.00465815,-0.007453039999999999,1746801893643897
0.359996,-9.557236,-0.677534,-0.02408929,-0.0047912399999999996,-0.007719219999999999,1746801913617117
0.335478,-9.560226,-0.70265,-0.024887829999999996,-0.004391969999999999,-0.00825158,1746801933590337
0.342056,-9.571588,-0.679328,-0.025287099999999996,-0.0047912399999999996,-0.007719219999999999,1746801953563737
0.349232,-9.578166,-0.680524,-0.024355469999999997,-0.00505742,-0.008118489999999999,1746801973537057
0.345046,-9.56202,-0.702052,-0.024887829999999996,-0.0053235999999999995,-0.0079854,1746801993510457
0.3588,-9.560824,-0.674544,-0.024754739999999997,-0.0047912399999999996,-0.006654499999999999,1746802013483897
0.332488,-9.572784,-0.687102,-0.023556929999999997,-0.00505742,-0.006654499999999999,1746802033457337
0.350428,-9.573382,-0.691288,-0.023956199999999997,-0.00465815,-0.006920679999999999,1746802053430577
0.364182,-9.563814,-0.677534,-0.02369002,-0.00572287,-0.007053769999999999,1746802073403957
0.356408,-9.577568,-0.69368,-0.024222379999999998,-0.00572287,-0.00785231,1746802093377497
0.352222,-9.560824,-0.698464,-0.025154009999999997,-0.00425888,-0.006920679999999999,1746802113351017
0.345046,-9.576372000000001,-0.708032,-0.024355469999999997,-0.00425888,-0.00678759,1746802133324397
0.350428,-9.57697,-0.709228,-0.02408929,-0.00412579,-0.006521409999999999,1746802153297677
0.342654,-9.557236,-0.694876,-0.023956199999999997,-0.0039927,-0.006654499999999999,1746802173271097
0.348036,-9.576372000000001,-0.67873,-0.02542019,-0.004924329999999999,-0.006521409999999999,1746802193244457
0.35282,-9.572186,-0.679926,-0.024754739999999997,-0.00519051,-0.007586129999999999,1746802213217877
0.34684,-9.566804,-0.685308,-0.02462165,-0.00519051,-0.00718686,1746802233191317
0.366574,-9.572186,-0.691288,-0.02462165,-0.004391969999999999,-0.00718686,1746802253164597
0.35581,-9.566804,-0.682318,-0.024222379999999998,-0.00505742,-0.007453039999999999,1746802273137957
0.346242,-9.563814,-0.6942780000000001,-0.02448856,-0.004924329999999999,-0.006654499999999999,1746802293111237
0.34983000000000003,-9.569794,-0.670956,-0.02448856,-0.00519051,-0.00678759,1746802313084637
0.355212,-9.564412,-0.694876,-0.024222379999999998,-0.00465815,-0.00785231,1746802333057977
0.344448,-9.566804,-0.6578,-0.02289148,-0.00465815,-0.0073199499999999995,1746802353031317
0.34684,-9.567402,-0.698464,-0.02369002,-0.004924329999999999,-0.00718686,1746802373004017
0.349232,-9.576372000000001,-0.676338,-0.023556929999999997,-0.0047912399999999996,-0.006521409999999999,1746802392977357
0.351624,-9.572186,-0.689494,-0.024222379999999998,-0.00572287,-0.00718686,1746802412950617
0.345046,-9.560824,-0.686504,-0.02462165,-0.00519051,-0.008118489999999999,1746801433923917
0.365378,-9.559628,-0.69368,-0.024355469999999997,-0.00465815,-0.006654499999999999,1746801453897317
0.348036,-9.565010000000001,-0.682916,-0.023823109999999998,-0.00505742,-0.007586129999999999,1746801473870697
0.338468,-9.565010000000001,-0.695474,-0.023556929999999997,-0.00465815,-0.00625523,1746801493844017
0.35581,-9.581754,-0.682318,-0.023556929999999997,-0.00505742,-0.007453039999999999,1746801513817537
0.351624,-9.561422,-0.66976,-0.024355469999999997,-0.00612214,-0.00678759,1746801533790877
0.348634,-9.55006,-0.676936,-0.024222379999999998,-0.00505742,-0.00678759,1746801553764257
0.349232,-9.56202,-0.715208,-0.025287099999999996,-0.0047912399999999996,-0.007719219999999999,1746801573737517
0.355212,-9.563216,-0.69667,-0.025287099999999996,-0.0047912399999999996,-0.007453039999999999,1746801593710717
0.348634,-9.567402,-0.70863,-0.02408929,-0.00425888,-0.007586129999999999,1746801613684137
0.345644,-9.563216,-0.68471,-0.023556929999999997,-0.004391969999999999,-0.007719219999999999,1746801633657477
0.357604,-9.556638,-0.691288,-0.02369002,-0.00465815,-0.0079854,1746801653630757
0.353418,-9.571588,-0.661388,-0.02448856,-0.005456689999999999,-0.006521409999999999,1746801673603997
0.359398,-9.56202,-0.69069,-0.024222379999999998,-0.0053235999999999995,-0.00678759,1746801693577397
0.36777,-9.564412,-0.70265,-0.02448856,-0.00572287,-0.00718686,1746801713550797
0.33787,-9.566206,-0.67574,-0.02369002,-0.0058559599999999995,-0.00718686,1746801733524097
0.33488,-9.574578,-0.679328,-0.024887829999999996,-0.004525059999999999,-0.006388319999999999,1746801753497397
0.351624,-9.55604,-0.6996600000000001,-0.024754739999999997,-0.00412579,-0.007053769999999999,1746801773470837
0.356408,-9.570392,-0.680524,-0.024754739999999997,-0.00505742,-0.007586129999999999,1746801793444277
0.359996,-9.560226,-0.679926,-0.024887829999999996,-0.004924329999999999,-0.006654499999999999,1746801813417677
0.345046,-9.571588,-0.69069,-0.024355469999999997,-0.004525059999999999,-0.007586129999999999,1746801833391117
0.345046,-9.562618,-0.679328,-0.024355469999999997,-0.00425888,-0.008783939999999999,1746801853364637
0.345046,-9.563216,-0.69667,-0.024887829999999996,-0.00425888,-0.007453039999999999,1746801873338037
0.346242,-9.562618,-0.692484,-0.024355469999999997,-0.004924329999999999,-0.006521409999999999,1746801893311537
0.353418,-9.553648,-0.6942780000000001,-0.024754739999999997,-0.00572287,-0.00612214,1746801913284977
0.356408,-9.564412,-0.684112,-0.02581946,-0.00519051,-0.006388319999999999,1746801933258357
0.351026,-9.546472,-0.690092,-0.024887829999999996,-0.0047912399999999996,-0.007586129999999999,1746801953231777
0.34684,-9.551854,-0.676338,-0.024355469999999997,-0.00505742,-0.007586129999999999,1746801973205257
0.360594,-9.564412,-0.684112,-0.02448856,-0.00465815,-0.00678759,1746801993178757
0.34983000000000003,-9.561422,-0.706836,-0.024355469999999997,-0.00412579,-0.00718686,1746802013152177
0.371358,-9.563814,-0.670956,-0.025287099999999996,-0.004525059999999999,-0.007586129999999999,1746802033125577
0.349232,-9.557236,-0.704444,-0.02462165,-0.0053235999999999995,-0.0079854,1746802053098957
0.351026,-9.573382,-0.693082,-0.02448856,-0.00505742,-0.00785231,1746802073072357
0.354016,-9.560226,-0.679926,-0.024355469999999997,-0.00465815,-0.008118489999999999,1746802093045677
0.363584,-9.565608000000001,-0.689494,-0.02369002,-0.0053235999999999995,-0.0073199499999999995,1746802113019097
0.359398,-9.561422,-0.685906,-0.02448856,-0.00465815,-0.00718686,1746802132992497
0.362388,-9.568598,-0.693082,-0.024887829999999996,-0.005589779999999999,-0.006521409999999999,1746802152965837
0.3588,-9.565010000000001,-0.687102,-0.025287099999999996,-0.0053235999999999995,-0.00718686,1746802172939217
0.351624,-9.568598,-0.669162,-0.024754739999999997,-0.005589779999999999,-0.00718686,1746802192912557
0.353418,-9.563814,-0.682916,-0.02408929,-0.004391969999999999,-0.0073199499999999995,1746802212886037
0.361192,-9.559628,-0.698464,-0.023157659999999997,-0.004924329999999999,-0.006388319999999999,1746802232859517
0.3588,-9.568,-0.678132,-0.025154009999999997,-0.00519051,-0.006654499999999999,1746802252832897
0.358202,-9.55604,-0.67275,-0.024887829999999996,-0.0039927,-0.006654499999999999,1746802272806317
0.347438,-9.567402,-0.6942780000000001,-0.023556929999999997,-0.0033272499999999995,-0.00718686,1746802292779757
0.357604,-9.561422,-0.672152,-0.023556929999999997,-0.004525059999999999,-0.00718686,1746802312753317
0.348036,-9.569196,-0.68172,-0.025287099999999996,-0.004391969999999999,-0.00678759,1746802332726737
0.353418,-9.569196,-0.675142,-0.02462165,-0.00505742,-0.0073199499999999995,1746802352700157
0.357604,-9.56202,-0.679926,-0.023423839999999998,-0.0047912399999999996,-0.007053769999999999,1746802372673557
0.358202,-9.561422,-0.690092,-0.024754739999999997,-0.00412579,-0.00718686,1746802392647017
0.345644,-9.566804,-0.7176,-0.025154009999999997,-0.0047912399999999996,-0.007053769999999999,1746802412620337
0.363584,-9.558432,-0.699062,-0.02462165,-0.004924329999999999,-0.00678759,1746801433593797
0.354016,-9.565608000000001,-0.694876,-0.024355469999999997,-0.005989049999999999,-0.006388319999999999,1746801453567157
0.348634,-9.562618,-0.669162,-0.02448856,-0.005589779999999999,-0.007453039999999999,1746801473540557
0.344448,-9.564412,-0.706238,-0.024754739999999997,-0.005456689999999999,-0.00825158,1746801493513837
0.345046,-9.550658,-0.697866,-0.024355469999999997,-0.00625523,-0.006521409999999999,1746801513487297
0.345046,-9.565010000000001,-0.6996600000000001,-0.024355469999999997,-0.005589779999999999,-0.006654499999999999,1746801533460737
0.34385,-9.554246000000001,-0.697866,-0.024887829999999996,-0.0047912399999999996,-0.0073199499999999995,1746801553434097
0.351026,-9.56202,-0.691886,-0.02408929,-0.00425888,-0.0073199499999999995,1746801573407437
0.350428,-9.575774000000001,-0.692484,-0.025154009999999997,-0.00572287,-0.007586129999999999,1746801593380817
0.348634,-9.575774000000001,-0.69069,-0.025287099999999996,-0.005589779999999999,-0.007586129999999999,1746801613354197
0.360594,-9.559628,-0.700258,-0.024887829999999996,-0.00505742,-0.0079854,1746801653301037
0.350428,-9.561422,-0.670956,-0.025553279999999998,-0.00425888,-0.006654499999999999,1746801673274497
0.35581,-9.565010000000001,-0.681122,-0.025553279999999998,-0.00505742,-0.00625523,1746801693247937
0.348634,-9.568598,-0.685906,-0.02462165,-0.00572287,-0.007453039999999999,1746801713221417
0.348036,-9.564412,-0.689494,-0.023956199999999997,-0.004924329999999999,-0.00625523,1746801733194897
0.362388,-9.566206,-0.685308,-0.02502092,-0.00625523,-0.006920679999999999,1746801753168337
0.355212,-9.572186,-0.689494,-0.025287099999999996,-0.00505742,-0.006920679999999999,1746801773141737
0.347438,-9.564412,-0.68172,-0.02462165,-0.00519051,-0.006521409999999999,1746801793115097
0.355212,-9.557236,-0.701454,-0.023956199999999997,-0.00505742,-0.0079854,1746801813088577
0.346242,-9.57099,-0.684112,-0.024887829999999996,-0.004525059999999999,-0.007586129999999999,1746801833062017
0.366574,-9.559628,-0.68172,-0.023823109999999998,-0.004924329999999999,-0.006920679999999999,1746801853035337
0.354614,-9.567402,-0.694876,-0.02408929,-0.00505742,-0.00678759,1746801873008677
0.337272,-9.564412,-0.699062,-0.02462165,-0.004391969999999999,-0.006521409999999999,1746801892982077
0.340262,-9.581754,-0.693082,-0.02502092,-0.004924329999999999,-0.0073199499999999995,1746801912955597
0.362388,-9.57398,-0.689494,-0.025287099999999996,-0.004924329999999999,-0.006920679999999999,1746801932929037
0.358202,-9.562618,-0.6877,-0.02462165,-0.004924329999999999,-0.007053769999999999,1746801952902317
0.34983000000000003,-9.558432,-0.701454,-0.024355469999999997,-0.00505742,-0.007719219999999999,1746801972875677
0.350428,-9.557834,-0.681122,-0.024222379999999998,-0.00572287,-0.0073199499999999995,1746801992849237
0.347438,-9.55604,-0.706238,-0.02502092,-0.0053235999999999995,-0.008118489999999999,1746802012822697
0.351624,-9.569196,-0.68471,-0.024754739999999997,-0.00465815,-0.006920679999999999,1746802032796057
0.34684,-9.565608000000001,-0.6942780000000001,-0.02502092,-0.00412579,-0.006920679999999999,1746802052769517
0.350428,-9.562618,-0.681122,-0.024754739999999997,-0.004525059999999999,-0.007586129999999999,1746802072742817
0.342654,-9.563216,-0.686504,-0.025952549999999998,-0.00519051,-0.0073199499999999995,1746802092716257
0.357006,-9.566804,-0.67873,-0.024754739999999997,-0.005456689999999999,-0.0073199499999999995,1746802112689677
0.34983000000000003,-9.55604,-0.681122,-0.025553279999999998,-0.00505742,-0.008384669999999999,1746802132663117
0.362388,-9.569794,-0.6625840000000001,-0.024222379999999998,-0.00519051,-0.007719219999999999,1746802152636437
0.34684,-9.559628,-0.709826,-0.023956199999999997,-0.00412579,-0.00678759,1746802172609737
0.34983000000000003,-9.562618,-0.688896,-0.024355469999999997,-0.005456689999999999,-0.0073199499999999995,1746802192583197
0.348634,-9.565608000000001,-0.664976,-0.023823109999999998,-0.00572287,-0.00785231,1746802212556657
0.369564,-9.55903,-0.661388,-0.02408929,-0.00519051,-0.0073199499999999995,1746802232530217
0.355212,-9.572784,-0.688298,-0.02462165,-0.00505742,-0.007053769999999999,1746802252503637
0.348634,-9.577568,-0.68172,-0.02542019,-0.0047912399999999996,-0.006920679999999999,1746802272476997
0.360594,-9.575774000000001,-0.696072,-0.024887829999999996,-0.00412579,-0.007053769999999999,1746802292450417
0.35282,-9.559628,-0.69069,-0.02462165,-0.0047912399999999996,-0.0079854,1746802312423837
0.365378,-9.554844000000001,-0.693082,-0.025154009999999997,-0.00425888,-0.006521409999999999,1746802332397237
0.359398,-9.560226,-0.683514,-0.02462165,-0.00465815,-0.006654499999999999,1746802352370577
0.35282,-9.567402,-0.701454,-0.02369002,-0.00359343,-0.007586129999999999,1746802372343977
0.339664,-9.55903,-0.674544,-0.024887829999999996,-0.0047912399999999996,-0.00851776,1746802392317397
0.352222,-9.560824,-0.6679660000000001,-0.025154009999999997,-0.004924329999999999,-0.008118489999999999,1746802412290857
0.354016,-9.570392,-0.691288,-0.02448856,-0.004924329999999999,-0.00785231,1746801433264197
0.356408,-9.558432,-0.697268,-0.02448856,-0.00505742,-0.006654499999999999,1746801453237517
0.34983000000000003,-9.571588,-0.715806,-0.025287099999999996,-0.00519051,-0.007719219999999999,1746801473210937
0.350428,-9.564412,-0.661986,-0.02542019,-0.0047912399999999996,-0.007719219999999999,1746801493184397
0.348634,-9.565608000000001,-0.684112,-0.025686369999999997,-0.0053235999999999995,-0.006920679999999999,1746801513157877
0.351026,-9.566206,-0.690092,-0.025952549999999998,-0.00505742,-0.007053769999999999,1746801533131297
0.352222,-9.569794,-0.688896,-0.025553279999999998,-0.00519051,-0.007719219999999999,1746801553104637
0.350428,-9.581156,-0.691886,-0.024222379999999998,-0.0047912399999999996,-0.007719219999999999,1746801573078037
0.361192,-9.561422,-0.693082,-0.023956199999999997,-0.00465815,-0.00785231,1746801593051497
0.349232,-9.57996,-0.66976,-0.023556929999999997,-0.004525059999999999,-0.00785231,1746801613024917
0.358202,-9.564412,-0.695474,-0.02502092,-0.00519051,-0.0073199499999999995,1746801632998217
0.349232,-9.563814,-0.71162,-0.025154009999999997,-0.0053235999999999995,-0.007719219999999999,1746801652971657
0.359996,-9.564412,-0.689494,-0.02462165,-0.0047912399999999996,-0.007586129999999999,1746801672945077
0.35282,-9.570392,-0.67275,-0.02408929,-0.0047912399999999996,-0.00865085,1746801692918417
0.348036,-9.568,-0.7050420000000001,-0.024355469999999997,-0.005456689999999999,-0.0079854,1746801712891937
0.348036,-9.572784,-0.689494,-0.023823109999999998,-0.00505742,-0.006920679999999999,1746801732865357
0.360594,-9.57398,-0.700856,-0.02502092,-0.004924329999999999,-0.007719219999999999,1746801752838857
0.360594,-9.566804,-0.686504,-0.024355469999999997,-0.00519051,-0.007719219999999999,1746801772812237
0.366574,-9.578764,-0.699062,-0.024355469999999997,-0.005456689999999999,-0.008384669999999999,1746801792785617
0.352222,-9.565010000000001,-0.693082,-0.024887829999999996,-0.00505742,-0.006654499999999999,1746801812759117
0.362388,-9.568598,-0.682318,-0.023823109999999998,-0.0053235999999999995,-0.007453039999999999,1746801832732537
0.348634,-9.557236,-0.703846,-0.02408929,-0.004924329999999999,-0.006654499999999999,1746801852705957
0.353418,-9.575774000000001,-0.691288,-0.024887829999999996,-0.005456689999999999,-0.006920679999999999,1746801872679237
0.342056,-9.568598,-0.68471,-0.02448856,-0.0053235999999999995,-0.006521409999999999,1746801892652777
0.362388,-9.572784,-0.691886,-0.02448856,-0.00465815,-0.0073199499999999995,1746801912626217
0.353418,-9.568598,-0.670358,-0.02369002,-0.00465815,-0.006920679999999999,1746801932599617
0.35282,-9.565608000000001,-0.674544,-0.024754739999999997,-0.004525059999999999,-0.00785231,1746801952573057
0.355212,-9.559628,-0.692484,-0.02408929,-0.0047912399999999996,-0.006920679999999999,1746801972546577
0.3588,-9.55604,-0.69667,-0.02448856,-0.00519051,-0.007586129999999999,1746801992520017
0.34983000000000003,-9.558432,-0.689494,-0.024222379999999998,-0.00505742,-0.008118489999999999,1746802012493397
0.354614,-9.565608000000001,-0.682318,-0.023956199999999997,-0.0047912399999999996,-0.008384669999999999,1746802032466897
0.345644,-9.565010000000001,-0.658996,-0.024222379999999998,-0.00425888,-0.007719219999999999,1746802052440357
0.34684,-9.580558,-0.683514,-0.024222379999999998,-0.0037265199999999997,-0.008384669999999999,1746802072413897
0.34086,-9.57996,-0.694876,-0.023556929999999997,-0.0047912399999999996,-0.0073199499999999995,1746802092387337
0.352222,-9.567402,-0.678132,-0.024887829999999996,-0.00412579,-0.007719219999999999,1746802112360797
0.348036,-9.568,-0.676338,-0.025154009999999997,-0.00519051,-0.007586129999999999,1746802132334257
0.340262,-9.556638,-0.666172,-0.02448856,-0.00465815,-0.0073199499999999995,1746802152307657
0.348634,-9.555442,-0.68172,-0.024887829999999996,-0.00505742,-0.006920679999999999,1746802172281057
0.354614,-9.563216,-0.685308,-0.024355469999999997,-0.004924329999999999,-0.007453039999999999,1746802192254557
0.34983000000000003,-9.560226,-0.691288,-0.024754739999999997,-0.004391969999999999,-0.00718686,1746802212227977
0.360594,-9.564412,-0.6942780000000001,-0.024887829999999996,-0.0047912399999999996,-0.0073199499999999995,1746802232201437
0.349232,-9.560824,-0.673946,-0.023556929999999997,-0.004924329999999999,-0.006920679999999999,1746802252174857
0.346242,-9.568,-0.70564,-0.02408929,-0.00519051,-0.0073199499999999995,1746802272148237
0.357604,-9.563216,-0.698464,-0.024754739999999997,-0.0047912399999999996,-0.00718686,1746802292121557
0.355212,-9.560226,-0.683514,-0.024887829999999996,-0.00425888,-0.00612214,1746802312095057
0.358202,-9.563814,-0.679926,-0.024887829999999996,-0.00505742,-0.007586129999999999,1746802332068517
0.3588,-9.575774000000001,-0.690092,-0.02502092,-0.0047912399999999996,-0.007453039999999999,1746802352041817
0.372554,-9.565608000000001,-0.680524,-0.024754739999999997,-0.00519051,-0.00572287,1746802372015277
0.36777,-9.565010000000001,-0.687102,-0.024887829999999996,-0.0047912399999999996,-0.006521409999999999,1746802391988677
0.36179,-9.565608000000001,-0.69667,-0.024355469999999997,-0.004391969999999999,-0.007053769999999999,1746802411962157
0.348036,-9.555442,-0.691886,-0.024754739999999997,-0.004391969999999999,-0.006920679999999999,1746801432935637
0.359996,-9.566804,-0.683514,-0.025686369999999997,-0.005456689999999999,-0.00625523,1746801452908897
0.367172,-9.574578,-0.685308,-0.024754739999999997,-0.00465815,-0.007453039999999999,1746801472882277
0.349232,-9.560226,-0.6942780000000001,-0.023556929999999997,-0.005456689999999999,-0.007453039999999999,1746801492855677
0.356408,-9.563814,-0.686504,-0.02502092,-0.00572287,-0.007053769999999999,1746801512829137
0.349232,-9.557834,-0.700856,-0.023823109999999998,-0.005989049999999999,-0.0073199499999999995,1746801532802417
0.34684,-9.562618,-0.692484,-0.024355469999999997,-0.004924329999999999,-0.00678759,1746801552775737
0.357006,-9.56202,-0.697268,-0.024754739999999997,-0.00505742,-0.008118489999999999,1746801572749277
0.373152,-9.56202,-0.672152,-0.02462165,-0.00572287,-0.007053769999999999,1746801592722677
0.342056,-9.575774000000001,-0.676936,-0.02462165,-0.005456689999999999,-0.006521409999999999,1746801612696037
0.357604,-9.578166,-0.700258,-0.025154009999999997,-0.004525059999999999,-0.007719219999999999,1746801632669357
0.34385,-9.565010000000001,-0.699062,-0.024754739999999997,-0.00412579,-0.00825158,1746801652642757
0.357006,-9.569794,-0.7050420000000001,-0.025154009999999997,-0.0047912399999999996,-0.008384669999999999,1746801672616177
0.345644,-9.565010000000001,-0.680524,-0.024887829999999996,-0.005989049999999999,-0.006920679999999999,1746801692589597
0.36298600000000003,-9.568,-0.67574,-0.023956199999999997,-0.0047912399999999996,-0.007053769999999999,1746801712562977
0.357604,-9.559628,-0.699062,-0.023556929999999997,-0.0053235999999999995,-0.006920679999999999,1746801732536417
0.34983000000000003,-9.564412,-0.69069,-0.023823109999999998,-0.005989049999999999,-0.007586129999999999,1746801752509877
0.36179,-9.568598,-0.68172,-0.02462165,-0.00519051,-0.008118489999999999,1746801772483237
0.350428,-9.558432,-0.69667,-0.024754739999999997,-0.005456689999999999,-0.0079854,1746801792456637
0.361192,-9.568598,-0.702052,-0.02448856,-0.005989049999999999,-0.007719219999999999,1746801812430217
0.357604,-9.565010000000001,-0.687102,-0.023956199999999997,-0.005456689999999999,-0.007586129999999999,1746801832403537
0.33787,-9.568598,-0.69667,-0.024754739999999997,-0.00612214,-0.007719219999999999,1746801852376997
0.32591,-9.551854,-0.6877,-0.02462165,-0.004924329999999999,-0.007586129999999999,1746801872350317
0.34385,-9.568598,-0.6733480000000001,-0.02462165,-0.00505742,-0.007586129999999999,1746801892323697
0.341458,-9.569794,-0.680524,-0.023823109999999998,-0.005589779999999999,-0.0073199499999999995,1746801912297257
0.355212,-9.565010000000001,-0.687102,-0.024887829999999996,-0.004924329999999999,-0.007053769999999999,1746801932270737
0.351026,-9.55604,-0.7050420000000001,-0.025287099999999996,-0.004525059999999999,-0.0079854,1746801952244097
0.345644,-9.575176,-0.721786,-0.026085639999999997,-0.0047912399999999996,-0.007586129999999999,1746801972217757
0.349232,-9.57996,-0.690092,-0.026085639999999997,-0.005456689999999999,-0.00678759,1746801992191237
0.359398,-9.561422,-0.682318,-0.024887829999999996,-0.005456689999999999,-0.007453039999999999,1746802012164557
0.349232,-9.558432,-0.679926,-0.025287099999999996,-0.004924329999999999,-0.0073199499999999995,1746802032137937
0.356408,-9.569794,-0.69368,-0.025952549999999998,-0.00505742,-0.00785231,1746802052111317
0.351026,-9.577568,-0.693082,-0.024355469999999997,-0.0047912399999999996,-0.00678759,1746802072084797
0.367172,-9.566804,-0.68471,-0.02502092,-0.00572287,-0.00678759,1746802092058297
0.368966,-9.564412,-0.71162,-0.025287099999999996,-0.006920679999999999,-0.007719219999999999,1746802112031737
0.34385,-9.562618,-0.710424,-0.024355469999999997,-0.00519051,-0.008384669999999999,1746802132005157
0.359398,-9.55604,-0.690092,-0.02448856,-0.00519051,-0.0079854,1746802151978517
0.35282,-9.569794,-0.682916,-0.024754739999999997,-0.005589779999999999,-0.006920679999999999,1746802171951977
0.339664,-9.578166,-0.694876,-0.02542019,-0.0053235999999999995,-0.007453039999999999,1746802191925497
0.348634,-9.57398,-0.679926,-0.024222379999999998,-0.004391969999999999,-0.0079854,1746802211898817
0.338468,-9.560226,-0.697866,-0.02408929,-0.0053235999999999995,-0.00718686,1746802231872217
0.353418,-9.55305,-0.66677,-0.025287099999999996,-0.00519051,-0.006654499999999999,1746802251845537
0.352222,-9.55305,-0.685906,-0.02448856,-0.005456689999999999,-0.007453039999999999,1746802271818977
0.359996,-9.574578,-0.670956,-0.02448856,-0.0058559599999999995,-0.008384669999999999,1746802291792497
0.356408,-9.55604,-0.706836,-0.024754739999999997,-0.006388319999999999,-0.008118489999999999,1746802311765797
0.354614,-9.565608000000001,-0.713414,-0.02408929,-0.00519051,-0.006920679999999999,1746802331739277
0.352222,-9.570392,-0.702052,-0.02408929,-0.004391969999999999,-0.006521409999999999,1746802351712717
0.3588,-9.57996,-0.697268,-0.02542019,-0.005589779999999999,-0.007053769999999999,1746802371686097
0.346242,-9.558432,-0.694876,-0.02462165,-0.00412579,-0.007453039999999999,1746802391659377
0.345644,-9.55604,-0.706238,-0.023956199999999997,-0.0047912399999999996,-0.0073199499999999995,1746802411632857
0.332488,-9.560226,-0.698464,-0.02448856,-0.0047912399999999996,-0.007586129999999999,1746801432606297
0.342654,-9.560824,-0.68471,-0.024222379999999998,-0.00412579,-0.006388319999999999,1746801452579517
0.341458,-9.543482000000001,-0.691288,-0.02369002,-0.005989049999999999,-0.006388319999999999,1746801472552937
0.345644,-9.57099,-0.697866,-0.024355469999999997,-0.00625523,-0.006920679999999999,1746801492526277
0.351026,-9.565608000000001,-0.676338,-0.02408929,-0.0053235999999999995,-0.00851776,1746801512499817
0.351026,-9.568,-0.684112,-0.02329075,-0.00519051,-0.008384669999999999,1746801532473337
0.33488,-9.579362,-0.691288,-0.02408929,-0.004924329999999999,-0.00785231,1746801552446597
0.357006,-9.550658,-0.70863,-0.02462165,-0.004525059999999999,-0.007586129999999999,1746801572419997
0.353418,-9.567402,-0.69667,-0.024887829999999996,-0.004924329999999999,-0.008384669999999999,1746801592393417
0.344448,-9.568598,-0.69069,-0.025154009999999997,-0.004525059999999999,-0.007719219999999999,1746801612366537
0.342056,-9.582352,-0.710424,-0.02408929,-0.00425888,-0.007719219999999999,1746801632339897
0.34983000000000003,-9.56202,-0.702052,-0.02289148,-0.005456689999999999,-0.0073199499999999995,1746801652313777
0.348036,-9.559628,-0.7050420000000001,-0.02448856,-0.005589779999999999,-0.006521409999999999,1746801672287217
0.346242,-9.563216,-0.694876,-0.024754739999999997,-0.0058559599999999995,-0.007586129999999999,1746801692260617
0.371956,-9.55604,-0.700856,-0.024887829999999996,-0.0053235999999999995,-0.0073199499999999995,1746801712233937
0.349232,-9.577568,-0.687102,-0.02462165,-0.0053235999999999995,-0.006521409999999999,1746801732207397
0.328302,-9.554844000000001,-0.6996600000000001,-0.024355469999999997,-0.004391969999999999,-0.00718686,1746801752180777
0.348634,-9.562618,-0.670956,-0.024222379999999998,-0.004525059999999999,-0.00865085,1746801772154297
0.34983000000000003,-9.562618,-0.678132,-0.024222379999999998,-0.004924329999999999,-0.00851776,1746801792127737
0.339066,-9.57099,-0.665574,-0.02502092,-0.004924329999999999,-0.007453039999999999,1746801812101417
0.348036,-9.576372000000001,-0.691886,-0.02448856,-0.00412579,-0.007453039999999999,1746801832074917
0.341458,-9.55903,-0.69667,-0.02408929,-0.004924329999999999,-0.007453039999999999,1746801852048397
0.353418,-9.563216,-0.694876,-0.02408929,-0.0053235999999999995,-0.00785231,1746801872021797
0.346242,-9.557834,-0.695474,-0.02408929,-0.00505742,-0.007586129999999999,1746801891995257
0.34983000000000003,-9.558432,-0.69069,-0.023956199999999997,-0.00505742,-0.00785231,1746801911968777
0.36478,-9.566804,-0.691886,-0.024754739999999997,-0.0047912399999999996,-0.006521409999999999,1746801931942177
0.355212,-9.566206,-0.69368,-0.023956199999999997,-0.00505742,-0.007053769999999999,1746801951915697
0.348634,-9.552452,-0.706836,-0.02448856,-0.004391969999999999,-0.006920679999999999,1746801971889097
0.35282,-9.56202,-0.69069,-0.023823109999999998,-0.004924329999999999,-0.007053769999999999,1746801991862557
0.35282,-9.56202,-0.6733480000000001,-0.024222379999999998,-0.004924329999999999,-0.0073199499999999995,1746802011835977
0.345644,-9.567402,-0.679926,-0.023956199999999997,-0.004924329999999999,-0.007586129999999999,1746802031809537
0.3588,-9.571588,-0.688896,-0.023823109999999998,-0.004525059999999999,-0.00678759,1746802051782957
0.34086,-9.566206,-0.6679660000000001,-0.024754739999999997,-0.005989049999999999,-0.006521409999999999,1746802071756437
0.3588,-9.55305,-0.671554,-0.02408929,-0.005456689999999999,-0.008384669999999999,1746802091729957
0.345046,-9.570392,-0.697866,-0.024355469999999997,-0.00505742,-0.007053769999999999,1746802111703457
0.344448,-9.576372000000001,-0.683514,-0.024222379999999998,-0.004924329999999999,-0.006654499999999999,1746802131677117
0.354016,-9.57398,-0.674544,-0.02448856,-0.0058559599999999995,-0.006920679999999999,1746802151650537
0.352222,-9.569196,-0.691886,-0.025287099999999996,-0.005456689999999999,-0.00678759,1746802171623997
0.354016,-9.560824,-0.679328,-0.025553279999999998,-0.004924329999999999,-0.007053769999999999,1746802191597477
0.35581,-9.568598,-0.670358,-0.02502092,-0.004924329999999999,-0.007053769999999999,1746802211570857
0.357006,-9.554844000000001,-0.673946,-0.02581946,-0.00465815,-0.00718686,1746802231544197
0.343252,-9.564412,-0.697268,-0.024222379999999998,-0.00425888,-0.007719219999999999,1746802251517597
0.357604,-9.55903,-0.6733480000000001,-0.024754739999999997,-0.00612214,-0.00785231,1746802271491097
0.351624,-9.565010000000001,-0.66378,-0.02448856,-0.0047912399999999996,-0.008118489999999999,1746802291464177
0.360594,-9.572186,-0.685308,-0.024222379999999998,-0.004391969999999999,-0.007453039999999999,1746802311437597
0.342654,-9.556638,-0.71461,-0.024754739999999997,-0.004525059999999999,-0.006654499999999999,1746802331411097
0.35581,-9.556638,-0.683514,-0.02408929,-0.00465815,-0.007586129999999999,1746802351384557
0.34385,-9.56202,-0.676338,-0.025553279999999998,-0.00465815,-0.00718686,1746802371357937
0.356408,-9.557236,-0.659594,-0.023823109999999998,-0.00519051,-0.006654499999999999,1746802391331497
0.357006,-9.564412,-0.694876,-0.024222379999999998,-0.004391969999999999,-0.00612214,1746802411304817
0.349232,-9.577568,-0.670358,-0.024887829999999996,-0.004924329999999999,-0.008384669999999999,1746801432278357
0.359996,-9.576372000000001,-0.707434,-0.02448856,-0.00612214,-0.007719219999999999,1746801452251477
0.350428,-9.569196,-0.67275,-0.025553279999999998,-0.00572287,-0.006920679999999999,1746801472224777
0.348036,-9.572186,-0.681122,-0.02542019,-0.00519051,-0.007586129999999999,1746801492198137
0.341458,-9.552452,-0.682318,-0.023823109999999998,-0.004924329999999999,-0.006920679999999999,1746801512171637
0.347438,-9.563216,-0.6679660000000001,-0.02462165,-0.004391969999999999,-0.006388319999999999,1746801532145117
0.37076,-9.552452,-0.687102,-0.02408929,-0.004525059999999999,-0.0073199499999999995,1746801552118457
0.356408,-9.561422,-0.676338,-0.024754739999999997,-0.004525059999999999,-0.0073199499999999995,1746801572091857
0.34385,-9.56202,-0.68172,-0.025154009999999997,-0.004924329999999999,-0.006654499999999999,1746801592065217
0.349232,-9.580558,-0.699062,-0.024754739999999997,-0.0037265199999999997,-0.00625523,1746801612038597
0.358202,-9.566804,-0.679328,-0.025287099999999996,-0.00465815,-0.0058559599999999995,1746801632011977
0.339066,-9.572186,-0.692484,-0.02369002,-0.00465815,-0.006388319999999999,1746801651985397
0.359398,-9.554844000000001,-0.684112,-0.025287099999999996,-0.0047912399999999996,-0.00785231,1746801671958717
0.36298600000000003,-9.560226,-0.68471,-0.02462165,-0.00465815,-0.008118489999999999,1746801691932197
0.351026,-9.557834,-0.688896,-0.02462165,-0.005456689999999999,-0.00851776,1746801711905677
0.352222,-9.57099,-0.67574,-0.024754739999999997,-0.00425888,-0.00785231,1746801731879097
0.354016,-9.587136000000001,-0.685308,-0.02408929,-0.00572287,-0.00851776,1746801751852497
0.345644,-9.569794,-0.682916,-0.024355469999999997,-0.004525059999999999,-0.00785231,1746801771825757
0.348634,-9.571588,-0.706238,-0.02369002,-0.00465815,-0.0073199499999999995,1746801791799097
0.347438,-9.566206,-0.697866,-0.02369002,-0.00505742,-0.00678759,1746801811772517
0.343252,-9.566804,-0.679926,-0.02448856,-0.00505742,-0.00678759,1746801831745977
0.36478,-9.549462,-0.671554,-0.02462165,-0.004924329999999999,-0.00718686,1746801851719457
0.351026,-9.565608000000001,-0.676936,-0.024887829999999996,-0.00519051,-0.00718686,1746801871692957
0.354614,-9.554844000000001,-0.69069,-0.02502092,-0.0047912399999999996,-0.00678759,1746801891666397
0.34684,-9.565010000000001,-0.689494,-0.026085639999999997,-0.00412579,-0.007053769999999999,1746801911639697
0.366574,-9.563814,-0.711022,-0.02581946,-0.00519051,-0.006388319999999999,1746801931613217
0.33667400000000003,-9.566206,-0.701454,-0.024222379999999998,-0.00505742,-0.007586129999999999,1746801951586757
0.358202,-9.557834,-0.683514,-0.023823109999999998,-0.0047912399999999996,-0.006654499999999999,1746801971560217
0.356408,-9.558432,-0.687102,-0.025553279999999998,-0.004924329999999999,-0.006920679999999999,1746801991533677
0.357604,-9.565608000000001,-0.710424,-0.02502092,-0.00505742,-0.007053769999999999,1746802011507097
0.35581,-9.567402,-0.7205900000000001,-0.024355469999999997,-0.00519051,-0.005989049999999999,1746802031480357
0.354016,-9.569794,-0.697268,-0.024355469999999997,-0.0053235999999999995,-0.006521409999999999,1746802051453717
0.359398,-9.569196,-0.709826,-0.02448856,-0.00505742,-0.00678759,1746802071427117
0.353418,-9.563216,-0.701454,-0.023956199999999997,-0.0047912399999999996,-0.0073199499999999995,1746802091400577
0.353418,-9.563814,-0.679328,-0.02408929,-0.0047912399999999996,-0.009183209999999999,1746802111373957
0.35282,-9.565608000000001,-0.685308,-0.02369002,-0.005456689999999999,-0.008384669999999999,1746802131347337
0.356408,-9.571588,-0.68471,-0.02369002,-0.005589779999999999,-0.006654499999999999,1746802151320637
0.33667400000000003,-9.561422,-0.681122,-0.024222379999999998,-0.00465815,-0.006388319999999999,1746802171294097
0.35581,-9.557236,-0.6996600000000001,-0.02502092,-0.00425888,-0.005989049999999999,1746802191267537
0.35581,-9.57099,-0.692484,-0.02502092,-0.00505742,-0.007453039999999999,1746802211240917
0.359398,-9.565608000000001,-0.677534,-0.024887829999999996,-0.004525059999999999,-0.007053769999999999,1746802231214337
0.349232,-9.563814,-0.690092,-0.02502092,-0.0037265199999999997,-0.007586129999999999,1746802251187677
0.342654,-9.550658,-0.68172,-0.02462165,-0.00412579,-0.00718686,1746802271161097
0.348036,-9.57099,-0.7050420000000001,-0.02369002,-0.004924329999999999,-0.007053769999999999,1746802291134537
0.353418,-9.566804,-0.685906,-0.025154009999999997,-0.00425888,-0.007053769999999999,1746802311108037
0.360594,-9.557834,-0.663182,-0.02408929,-0.00505742,-0.006920679999999999,1746802331081397
0.354614,-9.554246000000001,-0.688896,-0.02408929,-0.00465815,-0.007053769999999999,1746802351054677
0.36478,-9.575176,-0.680524,-0.024887829999999996,-0.004924329999999999,-0.00612214,1746802371027977
0.339664,-9.54707,-0.696072,-0.023956199999999997,-0.004525059999999999,-0.00718686,1746802391001277
0.332488,-9.57099,-0.684112,-0.024355469999999997,-0.0047912399999999996,-0.0073199499999999995,1746802410974797
0.348036,-9.576372000000001,-0.687102,-0.02462165,-0.0047912399999999996,-0.007053769999999999,1746801431948297
0.351624,-9.570392,-0.676338,-0.02462165,-0.0039927,-0.006920679999999999,1746801451921617
0.359996,-9.565608000000001,-0.677534,-0.024754739999999997,-0.0047912399999999996,-0.007053769999999999,1746801471894977
0.33667400000000003,-9.565608000000001,-0.689494,-0.024222379999999998,-0.00505742,-0.007719219999999999,1746801491868317
0.348634,-9.562618,-0.66976,-0.024355469999999997,-0.00519051,-0.0079854,1746801511841817
0.359398,-9.57099,-0.696072,-0.024222379999999998,-0.004924329999999999,-0.00825158,1746801531815397
0.369564,-9.581156,-0.684112,-0.025154009999999997,-0.0053235999999999995,-0.0079854,1746801551788897
0.34684,-9.584146,-0.687102,-0.02408929,-0.004924329999999999,-0.00678759,1746801571762217
0.359398,-9.576372000000001,-0.692484,-0.024887829999999996,-0.0047912399999999996,-0.00785231,1746801591735577
0.359398,-9.559628,-0.685308,-0.023823109999999998,-0.00505742,-0.007586129999999999,1746801611708897
0.358202,-9.54707,-0.687102,-0.02408929,-0.0047912399999999996,-0.007586129999999999,1746801631682177
0.348634,-9.563814,-0.689494,-0.023956199999999997,-0.005456689999999999,-0.00678759,1746801651655477
0.346242,-9.562618,-0.682318,-0.024754739999999997,-0.004924329999999999,-0.006920679999999999,1746801671629037
0.348634,-9.573382,-0.676936,-0.023956199999999997,-0.004924329999999999,-0.006920679999999999,1746801691602577
0.340262,-9.569196,-0.6877,-0.024355469999999997,-0.005456689999999999,-0.006521409999999999,1746801711575957
0.368966,-9.571588,-0.699062,-0.024355469999999997,-0.00519051,-0.00678759,1746801731549417
0.351624,-9.568,-0.699062,-0.024222379999999998,-0.00572287,-0.006920679999999999,1746801751522897
0.357006,-9.56202,-0.674544,-0.02448856,-0.0058559599999999995,-0.007453039999999999,1746801771496497
0.33488,-9.572784,-0.669162,-0.02462165,-0.00519051,-0.00612214,1746801791470057
0.34684,-9.560226,-0.679926,-0.023956199999999997,-0.004924329999999999,-0.007053769999999999,1746801811443537
0.351624,-9.564412,-0.683514,-0.023157659999999997,-0.004391969999999999,-0.006654499999999999,1746801831416977
0.351026,-9.558432,-0.6942780000000001,-0.024355469999999997,-0.004525059999999999,-0.007053769999999999,1746801851390357
0.348036,-9.583548,-0.702052,-0.024355469999999997,-0.004924329999999999,-0.007453039999999999,1746801871363777
0.350428,-9.563814,-0.688298,-0.023956199999999997,-0.005589779999999999,-0.007053769999999999,1746801891337277
0.334282,-9.568598,-0.690092,-0.024355469999999997,-0.00425888,-0.006521409999999999,1746801911310697
0.351624,-9.565608000000001,-0.67873,-0.02581946,-0.00505742,-0.007053769999999999,1746801931284117
0.354614,-9.569794,-0.703846,-0.02462165,-0.0053235999999999995,-0.008384669999999999,1746801951257597
0.359398,-9.566206,-0.684112,-0.02462165,-0.00505742,-0.006920679999999999,1746801971231077
0.368966,-9.551854,-0.683514,-0.024887829999999996,-0.005456689999999999,-0.007053769999999999,1746801991204657
0.34385,-9.578166,-0.69368,-0.02462165,-0.004391969999999999,-0.00678759,1746802011178197
0.356408,-9.59192,-0.65481,-0.02462165,-0.004924329999999999,-0.007053769999999999,1746802031151897
0.34983000000000003,-9.566206,-0.670956,-0.02462165,-0.00425888,-0.00718686,1746802051125317
0.34385,-9.564412,-0.676338,-0.024355469999999997,-0.0047912399999999996,-0.00678759,1746802071098757
0.351026,-9.569196,-0.68471,-0.02448856,-0.005456689999999999,-0.00678759,1746802091072277
0.357006,-9.565010000000001,-0.685906,-0.02462165,-0.0047912399999999996,-0.007719219999999999,1746802111045677
0.340262,-9.568,-0.670956,-0.023956199999999997,-0.0053235999999999995,-0.007453039999999999,1746802131019257
0.352222,-9.558432,-0.68172,-0.023956199999999997,-0.00505742,-0.006920679999999999,1746802150992677
0.359996,-9.563216,-0.682318,-0.02408929,-0.0047912399999999996,-0.006920679999999999,1746802170966117
0.351624,-9.558432,-0.69069,-0.02462165,-0.004924329999999999,-0.007453039999999999,1746802190939517
0.36179,-9.552452,-0.677534,-0.02448856,-0.00519051,-0.007719219999999999,1746802210912937
0.347438,-9.566804,-0.692484,-0.023423839999999998,-0.00519051,-0.006521409999999999,1746802230886237
0.348634,-9.565608000000001,-0.68471,-0.023823109999999998,-0.00505742,-0.00678759,1746802250859677
0.350428,-9.565608000000001,-0.682916,-0.024222379999999998,-0.0039927,-0.006654499999999999,1746802270833297
0.35282,-9.57996,-0.669162,-0.025952549999999998,-0.00425888,-0.007719219999999999,1746802290806897
0.356408,-9.575774000000001,-0.70564,-0.025686369999999997,-0.004924329999999999,-0.006920679999999999,1746802310780317
0.358202,-9.573382,-0.679328,-0.025287099999999996,-0.005989049999999999,-0.007719219999999999,1746802330753777
0.36179,-9.564412,-0.690092,-0.023956199999999997,-0.0053235999999999995,-0.00718686,1746802350727237
0.342056,-9.568,-0.709826,-0.02329075,-0.004924329999999999,-0.00718686,1746802370700657
0.351624,-9.575176,-0.700258,-0.024355469999999997,-0.00465815,-0.006521409999999999,1746802390674117
0.345046,-9.56202,-0.682318,-0.02448856,-0.0047912399999999996,-0.006920679999999999,1746802410647497
0.351624,-9.567402,-0.700856,-0.02462165,-0.005989049999999999,-0.006654499999999999,1746801431620957
0.342056,-9.570392,-0.680524,-0.024222379999999998,-0.00519051,-0.007586129999999999,1746801451594377
0.359398,-9.553648,-0.6877,-0.02408929,-0.00572287,-0.00718686,1746801471567897
0.350428,-9.57398,-0.696072,-0.024355469999999997,-0.00519051,-0.00785231,1746801491541377
0.361192,-9.557236,-0.688896,-0.02462165,-0.00465815,-0.00678759,1746801511514837
0.359996,-9.550658,-0.67275,-0.02448856,-0.0053235999999999995,-0.007453039999999999,1746801531488357
0.346242,-9.563216,-0.678132,-0.024355469999999997,-0.0053235999999999995,-0.006654499999999999,1746801551461897
0.34385,-9.579362,-0.675142,-0.02448856,-0.00572287,-0.0079854,1746801571435437
0.344448,-9.558432,-0.678132,-0.02448856,-0.00519051,-0.0073199499999999995,1746801591408817
0.338468,-9.571588,-0.682318,-0.024754739999999997,-0.0047912399999999996,-0.0073199499999999995,1746801611382217
0.34983000000000003,-9.568,-0.683514,-0.02462165,-0.004391969999999999,-0.0079854,1746801631355437
0.35282,-9.571588,-0.700856,-0.024754739999999997,-0.004391969999999999,-0.007586129999999999,1746801651328917
0.34983000000000003,-9.56202,-0.696072,-0.02502092,-0.00572287,-0.00718686,1746801671302197
0.355212,-9.569794,-0.69667,-0.02462165,-0.00519051,-0.00678759,1746801691275597
0.344448,-9.55305,-0.698464,-0.02408929,-0.00505742,-0.007586129999999999,1746801711249037
0.349232,-9.560226,-0.679328,-0.02462165,-0.0053235999999999995,-0.0079854,1746801731222457
0.35581,-9.544678,-0.679926,-0.025287099999999996,-0.004924329999999999,-0.008118489999999999,1746801751195937
0.34086,-9.559628,-0.681122,-0.024355469999999997,-0.0053235999999999995,-0.006920679999999999,1746801771169317
0.363584,-9.559628,-0.691288,-0.025154009999999997,-0.004525059999999999,-0.007453039999999999,1746801791142677
0.338468,-9.560226,-0.661388,-0.02448856,-0.005589779999999999,-0.007053769999999999,1746801811115977
0.34086,-9.560226,-0.700258,-0.024222379999999998,-0.00505742,-0.006388319999999999,1746801831089397
0.355212,-9.55006,-0.71162,-0.025686369999999997,-0.00505742,-0.0073199499999999995,1746801851062797
0.349232,-9.563814,-0.683514,-0.02408929,-0.005989049999999999,-0.00718686,1746801871036357
0.354016,-9.567402,-0.683514,-0.024355469999999997,-0.006521409999999999,-0.006388319999999999,1746801891009857
0.361192,-9.567402,-0.688298,-0.02408929,-0.005989049999999999,-0.00718686,1746801910983217
0.35581,-9.557236,-0.708032,-0.024222379999999998,-0.004924329999999999,-0.00718686,1746801930956597
0.34983000000000003,-9.55604,-0.687102,-0.02448856,-0.0047912399999999996,-0.00612214,1746801950929957
0.342654,-9.575774000000001,-0.690092,-0.02502092,-0.00465815,-0.006521409999999999,1746801970903357
0.354614,-9.563814,-0.682916,-0.024887829999999996,-0.005456689999999999,-0.007053769999999999,1746801990876837
0.362388,-9.560226,-0.679926,-0.02408929,-0.0058559599999999995,-0.006521409999999999,1746802010850297
0.358202,-9.572186,-0.700258,-0.02408929,-0.006388319999999999,-0.007453039999999999,1746802030823697
0.33667400000000003,-9.558432,-0.68471,-0.023956199999999997,-0.00425888,-0.00785231,1746802050797017
0.345046,-9.57099,-0.679926,-0.023956199999999997,-0.004525059999999999,-0.007586129999999999,1746802070770317
0.345644,-9.563814,-0.680524,-0.02502092,-0.00505742,-0.006920679999999999,1746802090743757
0.357604,-9.565608000000001,-0.694876,-0.025287099999999996,-0.0053235999999999995,-0.00785231,1746802110717177
0.35581,-9.557834,-0.697268,-0.024887829999999996,-0.005456689999999999,-0.00825158,1746802130690637
0.365378,-9.549462,-0.677534,-0.02462165,-0.005989049999999999,-0.007053769999999999,1746802150664097
0.353418,-9.564412,-0.69667,-0.02448856,-0.005589779999999999,-0.007453039999999999,1746802170637397
0.340262,-9.564412,-0.68172,-0.02462165,-0.004924329999999999,-0.0073199499999999995,1746802190610697
0.355212,-9.56202,-0.670956,-0.024355469999999997,-0.0047912399999999996,-0.006388319999999999,1746802210584017
0.346242,-9.565010000000001,-0.698464,-0.024222379999999998,-0.00425888,-0.006654499999999999,1746802230557337
0.354614,-9.569196,-0.675142,-0.024887829999999996,-0.00572287,-0.007586129999999999,1746802250530657
0.345644,-9.57099,-0.684112,-0.024355469999999997,-0.004525059999999999,-0.0079854,1746802270504137
0.351624,-9.567402,-0.699062,-0.023956199999999997,-0.004525059999999999,-0.0079854,1746802290477537
0.348634,-9.565608000000001,-0.674544,-0.024355469999999997,-0.005589779999999999,-0.007586129999999999,1746802310450977
0.345644,-9.56202,-0.703248,-0.025154009999999997,-0.004924329999999999,-0.007053769999999999,1746802330424297
0.352222,-9.568598,-0.684112,-0.026085639999999997,-0.004391969999999999,-0.007586129999999999,1746802350397817
0.34983000000000003,-9.584744,-0.691886,-0.024222379999999998,-0.00465815,-0.0073199499999999995,1746802370371177
0.356408,-9.566206,-0.706836,-0.02408929,-0.00425888,-0.007453039999999999,1746802390344797
0.339066,-9.573382,-0.6679660000000001,-0.02369002,-0.00519051,-0.007453039999999999,1746802410318377
0.35282,-9.575176,-0.676936,-0.02369002,-0.00572287,-0.00718686,1746801431291837
0.348036,-9.560824,-0.70564,-0.02502092,-0.0053235999999999995,-0.006521409999999999,1746801451265357
0.352222,-9.55903,-0.685308,-0.02542019,-0.0053235999999999995,-0.006654499999999999,1746801471238897
0.359996,-9.575774000000001,-0.695474,-0.024222379999999998,-0.00572287,-0.006654499999999999,1746801491212317
0.348036,-9.565608000000001,-0.70265,-0.023823109999999998,-0.005456689999999999,-0.006521409999999999,1746801511185817
0.356408,-9.566206,-0.6733480000000001,-0.02408929,-0.00572287,-0.007053769999999999,1746801531159277
0.346242,-9.551854,-0.68471,-0.024887829999999996,-0.00505742,-0.00825158,1746801551132797
0.362388,-9.572186,-0.700856,-0.02448856,-0.0047912399999999996,-0.00825158,1746801571106237
0.356408,-9.561422,-0.680524,-0.023956199999999997,-0.00505742,-0.007453039999999999,1746801591079677
0.35581,-9.569196,-0.702052,-0.023556929999999997,-0.0047912399999999996,-0.006388319999999999,1746801611053097
0.347438,-9.577568,-0.682916,-0.023556929999999997,-0.004525059999999999,-0.006920679999999999,1746801631026477
0.337272,-9.568,-0.677534,-0.023423839999999998,-0.0053235999999999995,-0.0073199499999999995,1746801650999937
0.3588,-9.554844000000001,-0.669162,-0.023956199999999997,-0.00505742,-0.007586129999999999,1746801670973417
0.357604,-9.564412,-0.675142,-0.02542019,-0.004525059999999999,-0.00825158,1746801690946837
0.351026,-9.570392,-0.69368,-0.02369002,-0.004391969999999999,-0.007053769999999999,1746801710920417
0.34983000000000003,-9.57697,-0.700258,-0.023956199999999997,-0.005589779999999999,-0.006654499999999999,1746801730893757
0.355212,-9.575176,-0.68172,-0.023423839999999998,-0.00519051,-0.006521409999999999,1746801750867117
0.354016,-9.56202,-0.691288,-0.023823109999999998,-0.00425888,-0.006920679999999999,1746801770840557
0.35282,-9.563216,-0.717002,-0.02502092,-0.00465815,-0.007453039999999999,1746801790813937
0.345644,-9.573382,-0.71461,-0.02502092,-0.00572287,-0.007719219999999999,1746801810787457
0.351624,-9.57697,-0.710424,-0.024887829999999996,-0.0058559599999999995,-0.00612214,1746801830760897
0.34385,-9.559628,-0.698464,-0.024222379999999998,-0.00465815,-0.007053769999999999,1746801850734357
0.345046,-9.563814,-0.721786,-0.023823109999999998,-0.0047912399999999996,-0.00678759,1746801870707837
0.34983000000000003,-9.562618,-0.675142,-0.023956199999999997,-0.00519051,-0.007719219999999999,1746801890681297
0.354614,-9.573382,-0.689494,-0.024355469999999997,-0.004391969999999999,-0.0073199499999999995,1746801910654757
0.364182,-9.569794,-0.680524,-0.02408929,-0.004391969999999999,-0.00718686,1746801930628117
0.353418,-9.575774000000001,-0.692484,-0.024887829999999996,-0.00412579,-0.006521409999999999,1746801950601537
0.3588,-9.568,-0.677534,-0.024754739999999997,-0.0038596099999999994,-0.007053769999999999,1746801970575017
0.35282,-9.572784,-0.678132,-0.02448856,-0.0047912399999999996,-0.007453039999999999,1746801990548237
0.339664,-9.566804,-0.678132,-0.02408929,-0.005456689999999999,-0.008384669999999999,1746802010521657
0.35581,-9.585342,-0.709228,-0.023956199999999997,-0.0037265199999999997,-0.00785231,1746802030494897
0.34983000000000003,-9.554246000000001,-0.696072,-0.02448856,-0.00505742,-0.006521409999999999,1746802050468137
0.362388,-9.562618,-0.69368,-0.024222379999999998,-0.00505742,-0.007453039999999999,1746802070441457
0.355212,-9.566804,-0.702052,-0.02448856,-0.00425888,-0.008118489999999999,1746802090414837
0.351624,-9.556638,-0.677534,-0.024754739999999997,-0.004391969999999999,-0.0073199499999999995,1746802110388117
0.361192,-9.557236,-0.673946,-0.023956199999999997,-0.0047912399999999996,-0.007719219999999999,1746802130361617
0.332488,-9.561422,-0.670358,-0.02408929,-0.00519051,-0.0079854,1746802150334897
0.345046,-9.568,-0.672152,-0.02542019,-0.00572287,-0.006654499999999999,1746802170308257
0.344448,-9.563216,-0.712218,-0.025553279999999998,-0.005456689999999999,-0.008384669999999999,1746802190281637
0.347438,-9.563814,-0.685906,-0.02542019,-0.00519051,-0.007453039999999999,1746802210255057
0.343252,-9.563814,-0.68172,-0.02408929,-0.004391969999999999,-0.00718686,1746802230228497
0.345046,-9.557236,-0.66378,-0.023823109999999998,-0.0047912399999999996,-0.00625523,1746802250201937
0.34983000000000003,-9.578166,-0.695474,-0.024887829999999996,-0.005456689999999999,-0.005989049999999999,1746802270175357
0.354016,-9.57697,-0.691886,-0.02542019,-0.006521409999999999,-0.0073199499999999995,1746802290148737
0.353418,-9.567402,-0.691886,-0.025952549999999998,-0.004924329999999999,-0.00865085,1746802310122077
0.3588,-9.574578,-0.70863,-0.025553279999999998,-0.0038596099999999994,-0.0079854,1746802330095437
0.350428,-9.577568,-0.703248,-0.024355469999999997,-0.00425888,-0.006654499999999999,1746802350068857
0.348634,-9.560226,-0.697268,-0.025287099999999996,-0.0058559599999999995,-0.00718686,1746802370042257
0.34684,-9.563216,-0.676338,-0.02408929,-0.0047912399999999996,-0.007453039999999999,1746802390015757
0.362388,-9.568598,-0.682916,-0.024887829999999996,-0.005456689999999999,-0.0073199499999999995,1746802409989117
0.351026,-9.555442,-0.69069,-0.025952549999999998,-0.004924329999999999,-0.007586129999999999,1746801430962597
0.354614,-9.557834,-0.703846,-0.025287099999999996,-0.0039927,-0.006654499999999999,1746801450936057
0.353418,-9.57398,-0.680524,-0.023157659999999997,-0.0047912399999999996,-0.00678759,1746801470909457
0.351026,-9.581754,-0.670956,-0.02329075,-0.00572287,-0.007453039999999999,1746801490882937
0.35282,-9.55903,-0.693082,-0.02448856,-0.005989049999999999,-0.00825158,1746801510856717
0.354614,-9.551256,-0.686504,-0.024887829999999996,-0.005989049999999999,-0.007719219999999999,1746801530830117
0.352222,-9.57398,-0.713414,-0.025154009999999997,-0.00425888,-0.008118489999999999,1746801550803617
0.35581,-9.57398,-0.703248,-0.024887829999999996,-0.005989049999999999,-0.008118489999999999,1746801570777017
0.352222,-9.555442,-0.694876,-0.025154009999999997,-0.0053235999999999995,-0.00678759,1746801590750377
0.351624,-9.561422,-0.69368,-0.025154009999999997,-0.00425888,-0.00718686,1746801610723737
0.360594,-9.57398,-0.6877,-0.02502092,-0.0038596099999999994,-0.007719219999999999,1746801630697177
0.35282,-9.575774000000001,-0.677534,-0.023823109999999998,-0.004525059999999999,-0.007719219999999999,1746801650670617
0.343252,-9.559628,-0.658398,-0.024222379999999998,-0.0053235999999999995,-0.007053769999999999,1746801670644077
0.354614,-9.568598,-0.652418,-0.025287099999999996,-0.0053235999999999995,-0.00785231,1746801690617537
0.342056,-9.564412,-0.692484,-0.024222379999999998,-0.00519051,-0.00851776,1746801710591057
0.362388,-9.554844000000001,-0.695474,-0.024355469999999997,-0.005589779999999999,-0.0079854,1746801730564537
0.342654,-9.572186,-0.684112,-0.024222379999999998,-0.00505742,-0.006920679999999999,1746801750537997
0.349232,-9.566804,-0.645242,-0.02448856,-0.004924329999999999,-0.006521409999999999,1746801770511357
0.349232,-9.565608000000001,-0.663182,-0.024222379999999998,-0.0053235999999999995,-0.00785231,1746801790484857
0.363584,-9.565608000000001,-0.683514,-0.02502092,-0.00519051,-0.009050119999999998,1746801810458317
0.346242,-9.57099,-0.688298,-0.02462165,-0.004924329999999999,-0.007719219999999999,1746801830431797
0.352222,-9.57398,-0.688298,-0.024222379999999998,-0.00519051,-0.006521409999999999,1746801850405297
0.365378,-9.566206,-0.665574,-0.024754739999999997,-0.005589779999999999,-0.0079854,1746801870378757
0.362388,-9.578166,-0.690092,-0.025553279999999998,-0.004924329999999999,-0.006920679999999999,1746801890352237
0.348634,-9.568,-0.682318,-0.02408929,-0.00519051,-0.007453039999999999,1746801910325677
0.351624,-9.55903,-0.69368,-0.024754739999999997,-0.0058559599999999995,-0.006920679999999999,1746801930299137
0.334282,-9.563814,-0.684112,-0.02502092,-0.00572287,-0.00718686,1746801950272617
0.342056,-9.563814,-0.67873,-0.023823109999999998,-0.005456689999999999,-0.005989049999999999,1746801970246237
0.345046,-9.571588,-0.687102,-0.02448856,-0.00519051,-0.007053769999999999,1746801990219637
0.338468,-9.556638,-0.67275,-0.025154009999999997,-0.00425888,-0.006920679999999999,1746802010193197
0.355212,-9.558432,-0.681122,-0.024222379999999998,-0.00505742,-0.007453039999999999,1746802030166777
0.347438,-9.57697,-0.67574,-0.024754739999999997,-0.005456689999999999,-0.007453039999999999,1746802050140237
0.352222,-9.56202,-0.6877,-0.025686369999999997,-0.00505742,-0.007586129999999999,1746802070113717
0.34684,-9.57099,-0.674544,-0.025287099999999996,-0.005589779999999999,-0.006521409999999999,1746802090087117
0.351624,-9.568,-0.656006,-0.02462165,-0.0053235999999999995,-0.007453039999999999,1746802110060597
0.36478,-9.557236,-0.684112,-0.023823109999999998,-0.0053235999999999995,-0.007453039999999999,1746802130034097
0.347438,-9.563216,-0.6877,-0.024222379999999998,-0.005989049999999999,-0.007453039999999999,1746802150007257
0.35282,-9.57099,-0.680524,-0.024887829999999996,-0.00519051,-0.006920679999999999,1746802169980777
0.348036,-9.573382,-0.694876,-0.02502092,-0.00425888,-0.00718686,1746802189954337
0.354614,-9.56202,-0.687102,-0.025686369999999997,-0.0047912399999999996,-0.00678759,1746802209927837
0.35282,-9.554844000000001,-0.681122,-0.024355469999999997,-0.005456689999999999,-0.00612214,1746802229901297
0.351624,-9.560824,-0.664378,-0.023823109999999998,-0.004391969999999999,-0.005989049999999999,1746802249874817
0.345046,-9.554844000000001,-0.681122,-0.023823109999999998,-0.005989049999999999,-0.006920679999999999,1746802269848937
0.3588,-9.563216,-0.687102,-0.024355469999999997,-0.004391969999999999,-0.007586129999999999,1746802289822357
0.342056,-9.557236,-0.676338,-0.02448856,-0.00465815,-0.007053769999999999,1746802309795857
0.338468,-9.569196,-0.6679660000000001,-0.024355469999999997,-0.0053235999999999995,-0.0073199499999999995,1746802329769217
0.342056,-9.574578,-0.669162,-0.023956199999999997,-0.00612214,-0.007453039999999999,1746802349742757
0.35282,-9.56202,-0.680524,-0.02462165,-0.00465815,-0.0073199499999999995,1746802369716177
0.345046,-9.563216,-0.6733480000000001,-0.023956199999999997,-0.005589779999999999,-0.008118489999999999,1746802389689737
0.352222,-9.568,-0.691288,-0.02462165,-0.00572287,-0.0073199499999999995,1746802409663237
0.353418,-9.562618,-0.689494,-0.025287099999999996,-0.004391969999999999,-0.006920679999999999,1746801430636657
0.342654,-9.572784,-0.6877,-0.025287099999999996,-0.005989049999999999,-0.007586129999999999,1746801450610157
0.339664,-9.568,-0.679926,-0.02448856,-0.0058559599999999995,-0.0073199499999999995,1746801470583477
0.34385,-9.570392,-0.6733480000000001,-0.023956199999999997,-0.00505742,-0.00718686,1746801490556937
0.344448,-9.582352,-0.703846,-0.024222379999999998,-0.004525059999999999,-0.00718686,1746801510530377
0.353418,-9.560226,-0.6733480000000001,-0.02369002,-0.0053235999999999995,-0.00678759,1746801530503757
0.344448,-9.569794,-0.687102,-0.024754739999999997,-0.005456689999999999,-0.007053769999999999,1746801550477217
0.360594,-9.571588,-0.688298,-0.023556929999999997,-0.00572287,-0.00718686,1746801570450577
0.351026,-9.569196,-0.67873,-0.024887829999999996,-0.0053235999999999995,-0.0073199499999999995,1746801590423997
0.35282,-9.575774000000001,-0.677534,-0.02462165,-0.00519051,-0.00718686,1746801610397397
0.364182,-9.573382,-0.677534,-0.023823109999999998,-0.004525059999999999,-0.007719219999999999,1746801630370757
0.345644,-9.572186,-0.721188,-0.02408929,-0.004391969999999999,-0.007053769999999999,1746801650344257
0.362388,-9.559628,-0.677534,-0.025553279999999998,-0.00505742,-0.00718686,1746801670317557
0.346242,-9.577568,-0.669162,-0.02369002,-0.005989049999999999,-0.00678759,1746801690291017
0.34983000000000003,-9.548266,-0.67275,-0.024355469999999997,-0.0053235999999999995,-0.00612214,1746801710264457
0.349232,-9.565010000000001,-0.664378,-0.024222379999999998,-0.00425888,-0.007053769999999999,1746801730237917
0.366574,-9.57996,-0.67275,-0.02448856,-0.004525059999999999,-0.007453039999999999,1746801750211457
0.359996,-9.57398,-0.6996600000000001,-0.024222379999999998,-0.00465815,-0.007053769999999999,1746801770184857
0.36478,-9.560226,-0.693082,-0.023556929999999997,-0.004924329999999999,-0.006920679999999999,1746801790158357
0.342056,-9.568598,-0.67275,-0.024754739999999997,-0.0047912399999999996,-0.008118489999999999,1746801810131817
0.354016,-9.573382,-0.688298,-0.02462165,-0.0058559599999999995,-0.008384669999999999,1746801830105037
0.348634,-9.569794,-0.689494,-0.024222379999999998,-0.004525059999999999,-0.00865085,1746801850078417
0.333684,-9.55903,-0.6877,-0.023823109999999998,-0.004391969999999999,-0.008384669999999999,1746801870051837
0.330694,-9.57996,-0.685308,-0.023956199999999997,-0.00572287,-0.007453039999999999,1746801890025257
0.357604,-9.573382,-0.708032,-0.023556929999999997,-0.00465815,-0.0073199499999999995,1746801909997997
0.346242,-9.566206,-0.697268,-0.024355469999999997,-0.0053235999999999995,-0.00718686,1746801929971397
0.341458,-9.578166,-0.687102,-0.02542019,-0.005989049999999999,-0.006388319999999999,1746801949944677
0.345644,-9.55903,-0.684112,-0.024887829999999996,-0.004924329999999999,-0.007719219999999999,1746801969918157
0.34684,-9.565608000000001,-0.69069,-0.023956199999999997,-0.005456689999999999,-0.007453039999999999,1746801989891397
0.354016,-9.573382,-0.692484,-0.02408929,-0.005589779999999999,-0.006521409999999999,1746802009865117
0.3588,-9.570392,-0.676936,-0.02448856,-0.00465815,-0.0073199499999999995,1746802029838437
0.363584,-9.578166,-0.679328,-0.02462165,-0.0053235999999999995,-0.007719219999999999,1746802049811837
0.34684,-9.567402,-0.6996600000000001,-0.024222379999999998,-0.004525059999999999,-0.006654499999999999,1746802069785197
0.361192,-9.578764,-0.678132,-0.02369002,-0.004391969999999999,-0.005989049999999999,1746802089758477
0.350428,-9.561422,-0.691288,-0.023556929999999997,-0.0047912399999999996,-0.007453039999999999,1746802109731937
0.350428,-9.568598,-0.69069,-0.02408929,-0.00505742,-0.00785231,1746802129705317
0.34385,-9.566804,-0.67574,-0.024355469999999997,-0.0047912399999999996,-0.007719219999999999,1746802149678917
0.355212,-9.562618,-0.693082,-0.024887829999999996,-0.00465815,-0.00785231,1746802169652377
0.358202,-9.557236,-0.696072,-0.024754739999999997,-0.0047912399999999996,-0.007053769999999999,1746802189625697
0.334282,-9.570392,-0.69667,-0.02369002,-0.00505742,-0.00718686,1746802209599157
0.358202,-9.570392,-0.671554,-0.02462165,-0.00465815,-0.007586129999999999,1746802229572597
0.360594,-9.566206,-0.685906,-0.023956199999999997,-0.0053235999999999995,-0.00718686,1746802249545957
0.351624,-9.57398,-0.685308,-0.024355469999999997,-0.004924329999999999,-0.006654499999999999,1746802269519397
0.34684,-9.565608000000001,-0.688298,-0.024754739999999997,-0.00519051,-0.006920679999999999,1746802289492657
0.3588,-9.565010000000001,-0.67275,-0.023823109999999998,-0.00572287,-0.00678759,1746802309466057
0.357006,-9.57099,-0.675142,-0.02502092,-0.005456689999999999,-0.00718686,1746802329439517
0.35282,-9.57398,-0.6996600000000001,-0.02448856,-0.00519051,-0.006521409999999999,1746802349412797
0.34684,-9.567402,-0.689494,-0.024754739999999997,-0.005589779999999999,-0.007053769999999999,1746802369386277
0.354016,-9.572784,-0.685906,-0.02462165,-0.00519051,-0.006920679999999999,1746802389359517
0.357006,-9.560824,-0.712218,-0.02462165,-0.00465815,-0.0073199499999999995,1746802409332817
0.358202,-9.55903,-0.688896,-0.02448856,-0.004525059999999999,-0.007719219999999999,1746801430306157
0.355212,-9.562618,-0.682318,-0.02408929,-0.004391969999999999,-0.007586129999999999,1746801450279497
0.33787,-9.559628,-0.673946,-0.024754739999999997,-0.00425888,-0.007453039999999999,1746801470252897
0.356408,-9.55903,-0.69667,-0.023823109999999998,-0.00505742,-0.007453039999999999,1746801490226737
0.345046,-9.564412,-0.667368,-0.025154009999999997,-0.00412579,-0.007586129999999999,1746801510200237
0.34385,-9.571588,-0.700258,-0.023823109999999998,-0.0047912399999999996,-0.007719219999999999,1746801530173597
0.34684,-9.582352,-0.677534,-0.023956199999999997,-0.005989049999999999,-0.00678759,1746801550147157
0.358202,-9.566206,-0.681122,-0.023157659999999997,-0.00519051,-0.007453039999999999,1746801570120617
0.357604,-9.565608000000001,-0.6877,-0.023556929999999997,-0.00505742,-0.006388319999999999,1746801590094117
0.351026,-9.574578,-0.69069,-0.02408929,-0.0047912399999999996,-0.006654499999999999,1746801610067537
0.352222,-9.573382,-0.661388,-0.02462165,-0.00625523,-0.006654499999999999,1746801630040957
0.358202,-9.56202,-0.678132,-0.024754739999999997,-0.00519051,-0.006388319999999999,1746801650014097
0.356408,-9.566804,-0.685308,-0.024222379999999998,-0.005589779999999999,-0.007719219999999999,1746801669987497
0.34684,-9.591322,-0.69667,-0.023823109999999998,-0.00465815,-0.00678759,1746801689960897
0.347438,-9.55903,-0.696072,-0.024754739999999997,-0.00505742,-0.006521409999999999,1746801709934297
0.36179,-9.575774000000001,-0.69667,-0.02448856,-0.005589779999999999,-0.008118489999999999,1746801729907797
0.347438,-9.568,-0.7259720000000001,-0.02542019,-0.005456689999999999,-0.0079854,1746801749881237
0.344448,-9.567402,-0.68172,-0.024887829999999996,-0.005989049999999999,-0.007586129999999999,1746801769854597
0.353418,-9.570392,-0.67873,-0.02408929,-0.005589779999999999,-0.00718686,1746801789827757
0.371358,-9.576372000000001,-0.702052,-0.024222379999999998,-0.0039927,-0.007719219999999999,1746801809801437
0.36179,-9.566206,-0.690092,-0.024222379999999998,-0.00519051,-0.006654499999999999,1746801829774937
0.35282,-9.582352,-0.678132,-0.02462165,-0.005589779999999999,-0.00612214,1746801849748357
0.365976,-9.581754,-0.6996600000000001,-0.024887829999999996,-0.005456689999999999,-0.00718686,1746801869721737
0.351026,-9.581754,-0.690092,-0.024754739999999997,-0.004525059999999999,-0.007453039999999999,1746801889695117
0.354016,-9.56202,-0.684112,-0.024754739999999997,-0.00519051,-0.007453039999999999,1746801909668517
0.35282,-9.575176,-0.693082,-0.02502092,-0.00465815,-0.00625523,1746801929641997
0.362388,-9.565608000000001,-0.69069,-0.025154009999999997,-0.004924329999999999,-0.006920679999999999,1746801949615377
0.347438,-9.57697,-0.674544,-0.02448856,-0.004391969999999999,-0.008118489999999999,1746801969588737
0.356408,-9.571588,-0.679328,-0.02502092,-0.00505742,-0.00865085,1746801989562137
0.359398,-9.554844000000001,-0.669162,-0.024887829999999996,-0.00425888,-0.007586129999999999,1746802009535417
0.35581,-9.562618,-0.681122,-0.026085639999999997,-0.0039927,-0.007053769999999999,1746802029509017
0.346242,-9.578166,-0.673946,-0.024887829999999996,-0.0053235999999999995,-0.006920679999999999,1746802049482517
0.356408,-9.564412,-0.678132,-0.02448856,-0.0053235999999999995,-0.007586129999999999,1746802069455857
0.346242,-9.556638,-0.67574,-0.02462165,-0.0038596099999999994,-0.007586129999999999,1746802089429337
0.354016,-9.560824,-0.66378,-0.024887829999999996,-0.004924329999999999,-0.007586129999999999,1746802109402877
0.357604,-9.574578,-0.681122,-0.024355469999999997,-0.00359343,-0.007453039999999999,1746802129375917
0.354614,-9.56202,-0.680524,-0.023956199999999997,-0.0033272499999999995,-0.006654499999999999,1746802149349337
0.355212,-9.565010000000001,-0.6996600000000001,-0.025154009999999997,-0.0037265199999999997,-0.007719219999999999,1746802169322897
0.350428,-9.576372000000001,-0.68471,-0.025287099999999996,-0.004924329999999999,-0.007453039999999999,1746802189296297
0.34684,-9.573382,-0.702052,-0.024222379999999998,-0.005456689999999999,-0.007586129999999999,1746802209269737
0.34684,-9.565010000000001,-0.687102,-0.023823109999999998,-0.004924329999999999,-0.00785231,1746802229243117
0.353418,-9.568598,-0.684112,-0.02542019,-0.00519051,-0.007586129999999999,1746802249216617
0.349232,-9.575176,-0.69368,-0.024887829999999996,-0.00425888,-0.0073199499999999995,1746802269190117
0.356408,-9.563814,-0.704444,-0.025154009999999997,-0.00412579,-0.00851776,1746802289163497
0.359398,-9.575176,-0.6877,-0.023956199999999997,-0.004391969999999999,-0.00851776,1746802309137037
0.364182,-9.566206,-0.664976,-0.02462165,-0.004924329999999999,-0.007719219999999999,1746802329110517
0.345644,-9.560226,-0.68471,-0.025287099999999996,-0.005589779999999999,-0.00718686,1746802349083997
0.347438,-9.571588,-0.684112,-0.02448856,-0.00505742,-0.00625523,1746802369057457
0.346242,-9.565010000000001,-0.6877,-0.024355469999999997,-0.0058559599999999995,-0.006920679999999999,1746802389030777
0.33488,-9.554246000000001,-0.680524,-0.024887829999999996,-0.004924329999999999,-0.006521409999999999,1746802409004237
0.33787,-9.57996,-0.68471,-0.02408929,-0.005456689999999999,-0.007453039999999999,1746801429977677
0.334282,-9.567402,-0.672152,-0.02408929,-0.00572287,-0.0073199499999999995,1746801449950817
0.351026,-9.575176,-0.682318,-0.02448856,-0.004391969999999999,-0.007453039999999999,1746801469924197
0.357604,-9.54707,-0.691288,-0.024887829999999996,-0.004525059999999999,-0.007586129999999999,1746801489897757
0.348036,-9.564412,-0.659594,-0.024355469999999997,-0.004525059999999999,-0.007586129999999999,1746801509871257
0.335478,-9.566804,-0.68471,-0.023823109999999998,-0.00412579,-0.00718686,1746801529844837
0.342654,-9.569196,-0.713414,-0.023823109999999998,-0.004924329999999999,-0.007586129999999999,1746801549818257
0.340262,-9.550658,-0.695474,-0.023956199999999997,-0.005456689999999999,-0.008118489999999999,1746801569791677
0.351026,-9.563216,-0.69069,-0.02448856,-0.005589779999999999,-0.0073199499999999995,1746801589765097
0.341458,-9.553648,-0.676338,-0.02448856,-0.0047912399999999996,-0.007053769999999999,1746801609738557
0.353418,-9.567402,-0.71461,-0.024355469999999997,-0.0047912399999999996,-0.006654499999999999,1746801629711997
0.363584,-9.558432,-0.67574,-0.024754739999999997,-0.00412579,-0.006521409999999999,1746801649685497
0.359398,-9.58295,-0.70265,-0.024222379999999998,-0.004525059999999999,-0.007053769999999999,1746801669658757
0.350428,-9.575176,-0.68172,-0.02462165,-0.004525059999999999,-0.00785231,1746801689632177
0.365976,-9.563814,-0.688298,-0.025154009999999997,-0.004924329999999999,-0.00785231,1746801709605657
0.361192,-9.556638,-0.680524,-0.024222379999999998,-0.00519051,-0.006654499999999999,1746801729579077
0.349232,-9.554844000000001,-0.679926,-0.02369002,-0.006388319999999999,-0.006388319999999999,1746801749552377
0.349232,-9.572186,-0.675142,-0.024355469999999997,-0.004924329999999999,-0.00678759,1746801769525857
0.349232,-9.55903,-0.703846,-0.023956199999999997,-0.00519051,-0.007453039999999999,1746801789499217
0.348634,-9.567402,-0.679328,-0.023556929999999997,-0.00505742,-0.0079854,1746801809472517
0.339664,-9.572784,-0.679328,-0.02369002,-0.004391969999999999,-0.00678759,1746801829446097
0.34983000000000003,-9.587136000000001,-0.706238,-0.023823109999999998,-0.00465815,-0.007719219999999999,1746801849419557
0.36478,-9.572186,-0.668564,-0.024355469999999997,-0.00572287,-0.00678759,1746801869393017
0.351624,-9.570392,-0.688896,-0.023823109999999998,-0.00572287,-0.006521409999999999,1746801889366477
0.353418,-9.556638,-0.686504,-0.024355469999999997,-0.00505742,-0.007053769999999999,1746801909339937
0.351026,-9.55604,-0.682318,-0.023823109999999998,-0.00519051,-0.00785231,1746801929313337
0.342654,-9.579362,-0.6877,-0.02369002,-0.005456689999999999,-0.007586129999999999,1746801949286697
0.346242,-9.566804,-0.668564,-0.023956199999999997,-0.005589779999999999,-0.007719219999999999,1746801969260297
0.351026,-9.572784,-0.685906,-0.02448856,-0.004525059999999999,-0.006521409999999999,1746801989233697
0.345644,-9.568,-0.659594,-0.02448856,-0.0038596099999999994,-0.006388319999999999,1746802009207237
0.357006,-9.565608000000001,-0.6942780000000001,-0.025287099999999996,-0.0047912399999999996,-0.0079854,1746802029180817
0.345644,-9.568,-0.703846,-0.02369002,-0.00519051,-0.0079854,1746802049154417
0.35581,-9.55604,-0.69069,-0.023956199999999997,-0.005989049999999999,-0.00718686,1746802069127837
0.355212,-9.560824,-0.693082,-0.024355469999999997,-0.00572287,-0.007053769999999999,1746802089101417
0.351026,-9.576372000000001,-0.689494,-0.024222379999999998,-0.0053235999999999995,-0.006920679999999999,1746802109075077
0.350428,-9.57099,-0.706836,-0.02502092,-0.0058559599999999995,-0.007053769999999999,1746802129048417
0.361192,-9.563814,-0.685308,-0.024754739999999997,-0.00519051,-0.007053769999999999,1746802149021797
0.355212,-9.559628,-0.701454,-0.02408929,-0.00519051,-0.00785231,1746802168995157
0.357006,-9.566804,-0.680524,-0.02462165,-0.00519051,-0.00572287,1746802188968597
0.346242,-9.571588,-0.689494,-0.02408929,-0.0047912399999999996,-0.007453039999999999,1746802208942037
0.35282,-9.572186,-0.67574,-0.025154009999999997,-0.00465815,-0.0079854,1746802228915517
0.349232,-9.565010000000001,-0.67873,-0.02502092,-0.005456689999999999,-0.00678759,1746802248888917
0.342056,-9.584146,-0.688896,-0.024355469999999997,-0.005456689999999999,-0.00718686,1746802268862397
0.349232,-9.565608000000001,-0.687102,-0.025154009999999997,-0.004525059999999999,-0.00678759,1746802288835797
0.355212,-9.574578,-0.7050420000000001,-0.02502092,-0.0047912399999999996,-0.00785231,1746802308809637
0.348634,-9.566804,-0.70564,-0.025287099999999996,-0.005456689999999999,-0.007453039999999999,1746802328783197
0.349232,-9.560226,-0.704444,-0.02448856,-0.005456689999999999,-0.00785231,1746802348756737
0.361192,-9.57398,-0.674544,-0.023823109999999998,-0.0047912399999999996,-0.00785231,1746802368730177
0.341458,-9.566206,-0.68172,-0.024222379999999998,-0.00625523,-0.00825158,1746802388703757
0.35581,-9.579362,-0.707434,-0.023823109999999998,-0.005456689999999999,-0.00785231,1746802408677197
0.35581,-9.557834,-0.66079,-0.02462165,-0.00519051,-0.007053769999999999,1746801429650737
0.352222,-9.573382,-0.70265,-0.02448856,-0.004924329999999999,-0.006920679999999999,1746801449624217
0.354614,-9.575774000000001,-0.683514,-0.023956199999999997,-0.00505742,-0.007453039999999999,1746801469597517
0.349232,-9.55903,-0.68172,-0.023823109999999998,-0.00572287,-0.00678759,1746801489570997
0.35282,-9.570392,-0.691288,-0.024355469999999997,-0.0047912399999999996,-0.006920679999999999,1746801509544497
0.351624,-9.562618,-0.6877,-0.02448856,-0.0047912399999999996,-0.007719219999999999,1746801529517857
0.35282,-9.566804,-0.701454,-0.02502092,-0.00519051,-0.007586129999999999,1746801549491257
0.354614,-9.565608000000001,-0.679926,-0.02502092,-0.004525059999999999,-0.008118489999999999,1746801569464817
0.335478,-9.57996,-0.658996,-0.024887829999999996,-0.004924329999999999,-0.00825158,1746801589438317
0.360594,-9.562618,-0.66677,-0.024222379999999998,-0.004924329999999999,-0.0079854,1746801609411757
0.343252,-9.55903,-0.67574,-0.02462165,-0.0047912399999999996,-0.006388319999999999,1746801629385497
0.34983000000000003,-9.563216,-0.68172,-0.02369002,-0.0058559599999999995,-0.007719219999999999,1746801649358817
0.361192,-9.562618,-0.697268,-0.02502092,-0.0058559599999999995,-0.00785231,1746801669332377
0.34983000000000003,-9.566804,-0.693082,-0.02408929,-0.0053235999999999995,-0.00718686,1746801689305817
0.350428,-9.565608000000001,-0.678132,-0.025154009999999997,-0.005456689999999999,-0.008384669999999999,1746801709279437
0.340262,-9.563216,-0.691288,-0.023956199999999997,-0.005456689999999999,-0.00718686,1746801729252897
0.343252,-9.562618,-0.703846,-0.023823109999999998,-0.00412579,-0.006521409999999999,1746801749226457
0.340262,-9.579362,-0.680524,-0.02462165,-0.0038596099999999994,-0.007453039999999999,1746801769199957
0.348036,-9.570392,-0.70564,-0.024754739999999997,-0.0053235999999999995,-0.008118489999999999,1746801789173437
0.343252,-9.563814,-0.695474,-0.024754739999999997,-0.0053235999999999995,-0.00785231,1746801809146917
0.358202,-9.563814,-0.691886,-0.02408929,-0.00465815,-0.00851776,1746801829120497
0.351624,-9.567402,-0.687102,-0.024355469999999997,-0.004924329999999999,-0.007719219999999999,1746801849094057
0.345644,-9.566804,-0.6942780000000001,-0.02369002,-0.004391969999999999,-0.00718686,1746801869067537
0.347438,-9.572186,-0.682318,-0.024222379999999998,-0.0047912399999999996,-0.00678759,1746801889041137
0.342654,-9.553648,-0.679926,-0.024754739999999997,-0.0047912399999999996,-0.00785231,1746801909014737
0.358202,-9.569794,-0.676936,-0.025154009999999997,-0.005589779999999999,-0.008384669999999999,1746801928988297
0.34983000000000003,-9.562618,-0.666172,-0.023956199999999997,-0.004924329999999999,-0.007053769999999999,1746801948961557
0.359398,-9.560226,-0.676338,-0.02462165,-0.004525059999999999,-0.007586129999999999,1746801968934897
0.336076,-9.565010000000001,-0.682916,-0.02448856,-0.00505742,-0.007719219999999999,1746801988908277
0.34983000000000003,-9.57996,-0.699062,-0.02542019,-0.00465815,-0.0073199499999999995,1746802008881777
0.360594,-9.565608000000001,-0.69368,-0.02462165,-0.00519051,-0.006920679999999999,1746802028855877
0.349232,-9.566804,-0.677534,-0.024887829999999996,-0.005456689999999999,-0.006388319999999999,1746802048829617
0.34983000000000003,-9.564412,-0.684112,-0.024355469999999997,-0.0053235999999999995,-0.0073199499999999995,1746802068803277
0.34983000000000003,-9.563814,-0.701454,-0.023556929999999997,-0.0047912399999999996,-0.00825158,1746802088777057
0.371358,-9.54707,-0.67275,-0.024754739999999997,-0.004924329999999999,-0.00851776,1746802108750757
0.346242,-9.574578,-0.6877,-0.024355469999999997,-0.005589779999999999,-0.00785231,1746802128724537
0.349232,-9.560226,-0.658398,-0.024222379999999998,-0.00465815,-0.0079854,1746802148698057
0.354614,-9.573382,-0.67574,-0.02462165,-0.004924329999999999,-0.00718686,1746802168671537
0.35282,-9.560824,-0.698464,-0.024355469999999997,-0.00412579,-0.008118489999999999,1746802188645217
0.346242,-9.562618,-0.707434,-0.023956199999999997,-0.00572287,-0.007053769999999999,1746802208618937
0.350428,-9.569794,-0.687102,-0.02502092,-0.00519051,-0.0073199499999999995,1746802228592537
0.353418,-9.57697,-0.67275,-0.02502092,-0.00572287,-0.00785231,1746802248565997
0.345644,-9.564412,-0.658398,-0.02462165,-0.0039927,-0.007453039999999999,1746802268539377
0.358202,-9.576372000000001,-0.650026,-0.024222379999999998,-0.0047912399999999996,-0.00718686,1746802288513057
0.351026,-9.551854,-0.66677,-0.02448856,-0.0039927,-0.00718686,1746802308486597
0.344448,-9.554844000000001,-0.683514,-0.024355469999999997,-0.004391969999999999,-0.007453039999999999,1746802328460197
0.34385,-9.57099,-0.661388,-0.024887829999999996,-0.00505742,-0.006920679999999999,1746802348433697
0.358202,-9.564412,-0.677534,-0.025154009999999997,-0.005456689999999999,-0.006521409999999999,1746802368407037
0.345046,-9.562618,-0.685308,-0.02462165,-0.00465815,-0.007053769999999999,1746802388380517
0.333086,-9.549462,-0.682916,-0.024754739999999997,-0.0047912399999999996,-0.0079854,1746802408354037
0.34385,-9.574578,-0.711022,-0.024754739999999997,-0.004391969999999999,-0.007053769999999999,1746801429327677
0.357006,-9.572784,-0.701454,-0.02502092,-0.004391969999999999,-0.00785231,1746801449301137
0.347438,-9.564412,-0.701454,-0.023157659999999997,-0.00465815,-0.007053769999999999,1746801469274477
0.355212,-9.570392,-0.695474,-0.02462165,-0.00519051,-0.006920679999999999,1746801489247797
0.353418,-9.57099,-0.686504,-0.02408929,-0.004391969999999999,-0.007586129999999999,1746801509221197
0.363584,-9.55903,-0.666172,-0.024754739999999997,-0.006521409999999999,-0.007586129999999999,1746801529194577
0.354614,-9.565608000000001,-0.684112,-0.024754739999999997,-0.005456689999999999,-0.0079854,1746801549168137
0.354016,-9.580558,-0.67873,-0.02502092,-0.00412579,-0.00785231,1746801569141577
0.347438,-9.567402,-0.695474,-0.025287099999999996,-0.00519051,-0.007053769999999999,1746801589115037
0.360594,-9.579362,-0.682318,-0.02542019,-0.0053235999999999995,-0.00718686,1746801609088437
0.348634,-9.572186,-0.678132,-0.02448856,-0.0053235999999999995,-0.00612214,1746801629061857
0.348634,-9.566206,-0.691288,-0.02448856,-0.00465815,-0.00625523,1746801649035237
0.363584,-9.570392,-0.670358,-0.024754739999999997,-0.00505742,-0.00612214,1746801669007897
0.366574,-9.57398,-0.671554,-0.024754739999999997,-0.00465815,-0.006920679999999999,1746801688981017
0.348036,-9.546472,-0.674544,-0.02502092,-0.00465815,-0.007586129999999999,1746801708954397
0.350428,-9.558432,-0.665574,-0.023956199999999997,-0.00505742,-0.007586129999999999,1746801728927517
0.347438,-9.563814,-0.689494,-0.02448856,-0.005589779999999999,-0.00718686,1746801748900677
0.358202,-9.566206,-0.682916,-0.023556929999999997,-0.005589779999999999,-0.0073199499999999995,1746801768873777
0.33787,-9.566804,-0.664976,-0.02369002,-0.005589779999999999,-0.007053769999999999,1746801788847637
0.348036,-9.558432,-0.685308,-0.023423839999999998,-0.004391969999999999,-0.007586129999999999,1746801808821117
0.349232,-9.562618,-0.674544,-0.024355469999999997,-0.0039927,-0.007453039999999999,1746801828794457
0.354016,-9.562618,-0.691288,-0.024355469999999997,-0.00412579,-0.00718686,1746801848767517
0.354016,-9.56202,-0.693082,-0.02542019,-0.004924329999999999,-0.0079854,1746801868740737
0.33787,-9.578764,-0.680524,-0.024222379999999998,-0.00465815,-0.00718686,1746801888714097
0.342654,-9.563216,-0.672152,-0.024355469999999997,-0.00425888,-0.006521409999999999,1746801908687437
0.351026,-9.570392,-0.6679660000000001,-0.02448856,-0.00412579,-0.0079854,1746801928660697
0.349232,-9.563216,-0.679328,-0.024754739999999997,-0.004391969999999999,-0.006388319999999999,1746801948633897
0.346242,-9.568598,-0.682318,-0.024222379999999998,-0.005456689999999999,-0.006920679999999999,1746801968607057
0.358202,-9.566206,-0.688298,-0.024222379999999998,-0.005456689999999999,-0.00718686,1746801988580277
0.348036,-9.557236,-0.690092,-0.024754739999999997,-0.0053235999999999995,-0.006920679999999999,1746802008553797
0.345644,-9.556638,-0.670956,-0.02448856,-0.00505742,-0.00678759,1746802028526957
0.366574,-9.568598,-0.67873,-0.024754739999999997,-0.00465815,-0.008118489999999999,1746802048500197
0.354614,-9.563216,-0.658398,-0.024355469999999997,-0.005456689999999999,-0.007719219999999999,1746802068473497
0.35282,-9.559628,-0.68471,-0.023823109999999998,-0.00572287,-0.00718686,1746802088446977
0.351624,-9.567402,-0.66976,-0.023956199999999997,-0.00425888,-0.00718686,1746802108420397
0.34684,-9.565010000000001,-0.672152,-0.025287099999999996,-0.004525059999999999,-0.006920679999999999,1746802128393757
0.351624,-9.569794,-0.664378,-0.024754739999999997,-0.00519051,-0.007453039999999999,1746802148367157
0.34684,-9.57996,-0.69368,-0.024887829999999996,-0.00425888,-0.007719219999999999,1746802168340577
0.36836800000000003,-9.563216,-0.682916,-0.02408929,-0.005456689999999999,-0.0073199499999999995,1746802188313757
0.342654,-9.569196,-0.686504,-0.024355469999999997,-0.004525059999999999,-0.0073199499999999995,1746802208287077
0.337272,-9.560824,-0.686504,-0.024887829999999996,-0.004924329999999999,-0.00718686,1746802228260297
0.35581,-9.554246000000001,-0.690092,-0.024887829999999996,-0.00425888,-0.007586129999999999,1746802248233717
0.339066,-9.559628,-0.690092,-0.02502092,-0.004391969999999999,-0.006654499999999999,1746802268207137
0.341458,-9.560226,-0.667368,-0.02462165,-0.005589779999999999,-0.007719219999999999,1746802288180577
0.354016,-9.55903,-0.684112,-0.02448856,-0.004924329999999999,-0.007586129999999999,1746802308154017
0.3588,-9.56202,-0.685308,-0.024754739999999997,-0.00519051,-0.006654499999999999,1746802328127457
0.337272,-9.57398,-0.66677,-0.02369002,-0.004525059999999999,-0.00718686,1746802348100657
0.351624,-9.565010000000001,-0.666172,-0.02462165,-0.00505742,-0.008384669999999999,1746802368074077
0.35282,-9.548864,-0.667368,-0.024355469999999997,-0.00505742,-0.007453039999999999,1746802388047437
0.35282,-9.563814,-0.691886,-0.02448856,-0.004525059999999999,-0.0073199499999999995,1746802408020797
0.340262,-9.554844000000001,-0.686504,-0.023956199999999997,-0.005589779999999999,-0.007053769999999999,1746802427993677
0.354614,-9.569794,-0.677534,-0.024355469999999997,-0.0047912399999999996,-0.006388319999999999,1746801448967017
0.355212,-9.573382,-0.70265,-0.024887829999999996,-0.004525059999999999,-0.00718686,1746801468940317
0.36179,-9.556638,-0.682318,-0.02542019,-0.00519051,-0.00785231,1746801488913717
0.3588,-9.563814,-0.685906,-0.02408929,-0.0047912399999999996,-0.007719219999999999,1746801508887117
0.347438,-9.562618,-0.685308,-0.024355469999999997,-0.004924329999999999,-0.007586129999999999,1746801528860377
0.343252,-9.570392,-0.6625840000000001,-0.023823109999999998,-0.0047912399999999996,-0.00678759,1746801548833677
0.345644,-9.578166,-0.698464,-0.02462165,-0.00465815,-0.006521409999999999,1746801568807077
0.355212,-9.578764,-0.691288,-0.024754739999999997,-0.005456689999999999,-0.007586129999999999,1746801588780457
0.359996,-9.59192,-0.693082,-0.02369002,-0.005456689999999999,-0.0073199499999999995,1746801608753837
0.347438,-9.565608000000001,-0.678132,-0.02448856,-0.005589779999999999,-0.00865085,1746801628727237
0.34684,-9.581754,-0.691886,-0.02408929,-0.004924329999999999,-0.00851776,1746801648700577
0.356408,-9.566804,-0.697866,-0.022758389999999996,-0.004525059999999999,-0.00785231,1746801668673977
0.346242,-9.561422,-0.686504,-0.023556929999999997,-0.0047912399999999996,-0.007586129999999999,1746801688647377
0.346242,-9.564412,-0.67873,-0.024754739999999997,-0.0047912399999999996,-0.00678759,1746801708620717
0.34385,-9.570392,-0.697866,-0.025686369999999997,-0.00412579,-0.0073199499999999995,1746801728594037
0.346242,-9.573382,-0.70564,-0.024754739999999997,-0.00519051,-0.007453039999999999,1746801748567597
0.350428,-9.581156,-0.700258,-0.02502092,-0.005456689999999999,-0.007053769999999999,1746801768541097
0.35282,-9.57398,-0.685308,-0.02408929,-0.00519051,-0.007586129999999999,1746801788514557
0.348036,-9.57099,-0.709228,-0.024222379999999998,-0.0053235999999999995,-0.00865085,1746801808487937
0.34684,-9.571588,-0.67275,-0.02448856,-0.00572287,-0.0079854,1746801828461377
0.350428,-9.565010000000001,-0.647634,-0.02581946,-0.0047912399999999996,-0.006654499999999999,1746801848434837
0.344448,-9.559628,-0.682318,-0.02581946,-0.00465815,-0.007053769999999999,1746801868408317
0.35282,-9.562618,-0.67574,-0.024754739999999997,-0.005589779999999999,-0.008783939999999999,1746801888381857
0.34086,-9.575774000000001,-0.686504,-0.023823109999999998,-0.005456689999999999,-0.0073199499999999995,1746801908355297
0.33667400000000003,-9.578764,-0.693082,-0.024222379999999998,-0.004391969999999999,-0.006654499999999999,1746801928328717
0.345046,-9.563216,-0.697268,-0.023423839999999998,-0.0053235999999999995,-0.00865085,1746801948302177
0.348634,-9.568598,-0.681122,-0.02448856,-0.005589779999999999,-0.008118489999999999,1746801968275597
0.352222,-9.578764,-0.715806,-0.024355469999999997,-0.005989049999999999,-0.0079854,1746801988249077
0.351026,-9.563814,-0.6877,-0.02448856,-0.005456689999999999,-0.0079854,1746802008222577
0.365378,-9.566804,-0.69667,-0.02448856,-0.00505742,-0.00825158,1746802028196117
0.371358,-9.55604,-0.691886,-0.024754739999999997,-0.0058559599999999995,-0.007453039999999999,1746802048169637
0.34385,-9.575774000000001,-0.671554,-0.024887829999999996,-0.0047912399999999996,-0.0073199499999999995,1746802068143097
0.35282,-9.575774000000001,-0.672152,-0.024222379999999998,-0.0058559599999999995,-0.0079854,1746802088116517
0.35282,-9.56202,-0.700258,-0.024754739999999997,-0.004525059999999999,-0.007586129999999999,1746802108089937
0.353418,-9.578166,-0.707434,-0.023556929999999997,-0.004525059999999999,-0.007053769999999999,1746802128063357
0.34086,-9.572186,-0.692484,-0.02462165,-0.00412579,-0.00718686,1746802148036757
0.360594,-9.573382,-0.690092,-0.02448856,-0.004924329999999999,-0.008118489999999999,1746802168010277
0.337272,-9.564412,-0.680524,-0.02462165,-0.0047912399999999996,-0.00785231,1746802187983697
0.348036,-9.578166,-0.684112,-0.025287099999999996,-0.00465815,-0.007586129999999999,1746802207957037
0.339664,-9.570392,-0.67275,-0.025553279999999998,-0.005989049999999999,-0.00678759,1746802227930477
0.348634,-9.563814,-0.685906,-0.02581946,-0.00519051,-0.00678759,1746802247903957
0.357604,-9.571588,-0.6877,-0.024355469999999997,-0.00612214,-0.007053769999999999,1746802267877477
0.34385,-9.57398,-0.687102,-0.024754739999999997,-0.00505742,-0.00865085,1746802287850977
0.353418,-9.561422,-0.6877,-0.024222379999999998,-0.0047912399999999996,-0.008118489999999999,1746802307824397
0.344448,-9.570392,-0.68172,-0.024355469999999997,-0.005456689999999999,-0.0073199499999999995,1746802327797897
0.354614,-9.575176,-0.690092,-0.02448856,-0.005456689999999999,-0.00785231,1746802367833031
0.3588,-9.568598,-0.702052,-0.023823109999999998,-0.00412579,-0.007453039999999999,1746802387806671
0.359398,-9.56202,-0.6877,-0.02408929,-0.0053235999999999995,-0.00718686,1746802407780211
0.348036,-9.558432,-0.683514,-0.024754739999999997,-0.0053235999999999995,-0.007586129999999999,1746802427753591
0.347438,-9.557236,-0.700856,-0.02448856,-0.00505742,-0.00678759,1746801448727111
0.348634,-9.550658,-0.672152,-0.025287099999999996,-0.005456689999999999,-0.00678759,1746801468700611
0.357006,-9.560824,-0.687102,-0.02462165,-0.00612214,-0.006920679999999999,1746801488674111
0.357006,-9.571588,-0.687102,-0.024222379999999998,-0.005589779999999999,-0.00678759,1746801508647651
0.325312,-9.574578,-0.676936,-0.023157659999999997,-0.00519051,-0.007053769999999999,1746801528621191
0.34385,-9.561422,-0.702052,-0.02408929,-0.00612214,-0.00718686,1746801548594691
0.34983000000000003,-9.555442,-0.682916,-0.02408929,-0.00519051,-0.0073199499999999995,1746801568568111
0.342056,-9.565608000000001,-0.671554,-0.02448856,-0.005456689999999999,-0.007453039999999999,1746801588541611
0.344448,-9.550658,-0.676936,-0.02462165,-0.00505742,-0.00785231,1746801608515191
0.352222,-9.563216,-0.694876,-0.023823109999999998,-0.0053235999999999995,-0.00785231,1746801628488711
0.351026,-9.562618,-0.67275,-0.02448856,-0.0047912399999999996,-0.006920679999999999,1746801648462191
0.347438,-9.565010000000001,-0.686504,-0.023157659999999997,-0.004924329999999999,-0.006654499999999999,1746801668435651
0.348036,-9.546472,-0.6733480000000001,-0.024222379999999998,-0.00465815,-0.00785231,1746801688409111
0.348634,-9.55604,-0.702052,-0.023956199999999997,-0.00519051,-0.008384669999999999,1746801708382591
0.354016,-9.553648,-0.693082,-0.023956199999999997,-0.004924329999999999,-0.007053769999999999,1746801728356151
0.339066,-9.56202,-0.696072,-0.024222379999999998,-0.00505742,-0.008384669999999999,1746801748329631
0.359398,-9.568,-0.6877,-0.02502092,-0.0053235999999999995,-0.008118489999999999,1746801768303151
0.354614,-9.556638,-0.701454,-0.023956199999999997,-0.006521409999999999,-0.007453039999999999,1746801788276631
0.351026,-9.55903,-0.690092,-0.023556929999999997,-0.00572287,-0.0073199499999999995,1746801808250191
0.338468,-9.565010000000001,-0.6733480000000001,-0.024222379999999998,-0.0053235999999999995,-0.007453039999999999,1746801828223771
0.351026,-9.553648,-0.674544,-0.02462165,-0.004525059999999999,-0.0073199499999999995,1746801848197251
0.34385,-9.570392,-0.702052,-0.024222379999999998,-0.0053235999999999995,-0.006654499999999999,1746801868170891
0.354614,-9.566804,-0.701454,-0.024355469999999997,-0.004924329999999999,-0.00785231,1746801888144411
0.341458,-9.560226,-0.691886,-0.024887829999999996,-0.00505742,-0.00825158,1746801908117971
0.34983000000000003,-9.560824,-0.673946,-0.023956199999999997,-0.00519051,-0.00851776,1746801928091511
0.351624,-9.552452,-0.681122,-0.024355469999999997,-0.0047912399999999996,-0.007719219999999999,1746801948065031
0.34086,-9.561422,-0.679328,-0.024355469999999997,-0.0047912399999999996,-0.007453039999999999,1746801968038491
0.339664,-9.572186,-0.682318,-0.024754739999999997,-0.004525059999999999,-0.00825158,1746801988011991
0.335478,-9.569196,-0.688896,-0.024887829999999996,-0.0047912399999999996,-0.007453039999999999,1746802007985471
0.334282,-9.571588,-0.691886,-0.024887829999999996,-0.005989049999999999,-0.00678759,1746802027958751
0.345644,-9.565608000000001,-0.703846,-0.02408929,-0.005456689999999999,-0.00612214,1746802047932171
0.348036,-9.57398,-0.693082,-0.024355469999999997,-0.005589779999999999,-0.00718686,1746802067905691
0.33787,-9.57398,-0.673946,-0.024222379999999998,-0.004924329999999999,-0.0079854,1746802087879111
0.345046,-9.561422,-0.692484,-0.02502092,-0.00505742,-0.00785231,1746802107852531
0.340262,-9.566804,-0.676936,-0.02448856,-0.005589779999999999,-0.007053769999999999,1746802127825991
0.343252,-9.575774000000001,-0.658996,-0.023823109999999998,-0.004924329999999999,-0.006654499999999999,1746802147799451
0.352222,-9.565010000000001,-0.677534,-0.023956199999999997,-0.0058559599999999995,-0.007453039999999999,1746802167772891
0.340262,-9.570392,-0.698464,-0.025686369999999997,-0.00465815,-0.007053769999999999,1746802187746331
0.348634,-9.578166,-0.665574,-0.025287099999999996,-0.004525059999999999,-0.006654499999999999,1746802207719791
0.351624,-9.567402,-0.686504,-0.02502092,-0.005456689999999999,-0.007053769999999999,1746802227693371
0.362388,-9.55006,-0.6877,-0.02502092,-0.0053235999999999995,-0.006654499999999999,1746802247666711
0.347438,-9.570392,-0.690092,-0.025553279999999998,-0.00519051,-0.00678759,1746802267640111
0.351026,-9.564412,-0.715208,-0.023823109999999998,-0.00425888,-0.0073199499999999995,1746802287613631
0.34684,-9.571588,-0.692484,-0.023823109999999998,-0.0047912399999999996,-0.007453039999999999,1746802307587111
0.338468,-9.568598,-0.695474,-0.025287099999999996,-0.00519051,-0.00678759,1746802327560531
0.345046,-9.566804,-0.673946,-0.025154009999999997,-0.004924329999999999,-0.00678759,1746802347533991
0.354016,-9.561422,-0.688298,-0.023956199999999997,-0.004525059999999999,-0.007453039999999999,1746802367507411
0.343252,-9.561422,-0.681122,-0.024754739999999997,-0.005456689999999999,-0.007586129999999999,1746802387480951
0.346242,-9.568598,-0.695474,-0.024355469999999997,-0.005989049999999999,-0.00718686,1746802407454391
0.365976,-9.566206,-0.674544,-0.02502092,-0.00465815,-0.0073199499999999995,1746802427427871
0.35282,-9.56202,-0.698464,-0.02448856,-0.004924329999999999,-0.0073199499999999995,1746801448401311
0.344448,-9.579362,-0.664378,-0.02502092,-0.005589779999999999,-0.00678759,1746801468374731
0.346242,-9.568598,-0.67574,-0.02408929,-0.0047912399999999996,-0.00718686,1746801488348211
0.360594,-9.565608000000001,-0.67574,-0.02408929,-0.004924329999999999,-0.0073199499999999995,1746801508321611
0.358202,-9.560824,-0.691886,-0.024355469999999997,-0.0053235999999999995,-0.007053769999999999,1746801528295091
0.345644,-9.572784,-0.701454,-0.02462165,-0.004924329999999999,-0.006521409999999999,1746801548268491
0.356408,-9.569794,-0.689494,-0.024222379999999998,-0.00505742,-0.00678759,1746801568241871
0.35282,-9.558432,-0.676338,-0.025553279999999998,-0.00519051,-0.007586129999999999,1746801588215311
0.354016,-9.570392,-0.66378,-0.02462165,-0.005456689999999999,-0.007453039999999999,1746801608188751
0.34385,-9.584744,-0.71162,-0.023823109999999998,-0.0053235999999999995,-0.008118489999999999,1746801628162191
0.346242,-9.562618,-0.684112,-0.024355469999999997,-0.0047912399999999996,-0.0079854,1746801648135591
0.367172,-9.557834,-0.671554,-0.02462165,-0.00519051,-0.009050119999999998,1746801668109031
0.348036,-9.557834,-0.681122,-0.024754739999999997,-0.00519051,-0.006654499999999999,1746801688082451
0.357604,-9.555442,-0.685308,-0.024887829999999996,-0.00505742,-0.00718686,1746801708055851
0.351026,-9.560824,-0.67873,-0.02462165,-0.0058559599999999995,-0.007453039999999999,1746801728029311
0.337272,-9.580558,-0.689494,-0.02448856,-0.006521409999999999,-0.007719219999999999,1746801748002851
0.34983000000000003,-9.563814,-0.678132,-0.024754739999999997,-0.005456689999999999,-0.00718686,1746801767976331
0.345046,-9.571588,-0.686504,-0.02462165,-0.00519051,-0.007719219999999999,1746801787949811
0.33667400000000003,-9.562618,-0.707434,-0.02408929,-0.00505742,-0.007053769999999999,1746801807923151
0.365976,-9.584146,-0.687102,-0.02462165,-0.004525059999999999,-0.007586129999999999,1746801827896571
0.367172,-9.572784,-0.696072,-0.024355469999999997,-0.00412579,-0.008118489999999999,1746801847869971
0.357006,-9.581754,-0.675142,-0.02462165,-0.0058559599999999995,-0.006521409999999999,1746801867843351
0.35282,-9.565608000000001,-0.6942780000000001,-0.024887829999999996,-0.00519051,-0.007586129999999999,1746801887816851
0.332488,-9.561422,-0.703846,-0.024887829999999996,-0.00465815,-0.00851776,1746801907790311
0.346242,-9.565010000000001,-0.692484,-0.024754739999999997,-0.00425888,-0.00785231,1746801927763731
0.35282,-9.539894,-0.7050420000000001,-0.024887829999999996,-0.0047912399999999996,-0.007453039999999999,1746801947737131
0.343252,-9.550658,-0.685308,-0.024754739999999997,-0.004525059999999999,-0.007453039999999999,1746801967710591
0.353418,-9.572186,-0.671554,-0.02462165,-0.00412579,-0.00851776,1746801987684011
0.349232,-9.569794,-0.6996600000000001,-0.024355469999999997,-0.004924329999999999,-0.0079854,1746802007657471
0.352222,-9.558432,-0.688298,-0.024355469999999997,-0.00465815,-0.00785231,1746802027630871
0.348634,-9.57398,-0.685308,-0.025287099999999996,-0.0047912399999999996,-0.00785231,1746802047604311
0.343252,-9.550658,-0.697866,-0.02502092,-0.0047912399999999996,-0.00785231,1746802067577751
0.350428,-9.579362,-0.66378,-0.025154009999999997,-0.005456689999999999,-0.006654499999999999,1746802087551191
0.35282,-9.570392,-0.66976,-0.02502092,-0.0047912399999999996,-0.006654499999999999,1746802107524711
0.34983000000000003,-9.571588,-0.688896,-0.024754739999999997,-0.004525059999999999,-0.00785231,1746802127498111
0.339066,-9.569794,-0.695474,-0.025154009999999997,-0.005456689999999999,-0.007586129999999999,1746802147471491
0.353418,-9.575774000000001,-0.676936,-0.023556929999999997,-0.0058559599999999995,-0.006388319999999999,1746802167444911
0.351026,-9.568598,-0.719992,-0.024754739999999997,-0.00519051,-0.00612214,1746802187418371
0.34684,-9.573382,-0.688896,-0.024355469999999997,-0.004391969999999999,-0.00718686,1746802207391871
0.346242,-9.553648,-0.696072,-0.025553279999999998,-0.00519051,-0.00718686,1746802227365251
0.354016,-9.580558,-0.685906,-0.025154009999999997,-0.0053235999999999995,-0.00785231,1746802247338771
0.343252,-9.573382,-0.692484,-0.025154009999999997,-0.00519051,-0.006920679999999999,1746802267312211
0.34983000000000003,-9.557236,-0.69368,-0.02462165,-0.004924329999999999,-0.007453039999999999,1746802287285691
0.351624,-9.573382,-0.676338,-0.02462165,-0.004525059999999999,-0.006654499999999999,1746802307259231
0.345046,-9.571588,-0.681122,-0.02542019,-0.0047912399999999996,-0.008384669999999999,1746802327232711
0.360594,-9.568,-0.67574,-0.02462165,-0.00465815,-0.007719219999999999,1746802347206151
0.349232,-9.573382,-0.671554,-0.024887829999999996,-0.00412579,-0.006388319999999999,1746802367179591
0.358202,-9.573382,-0.674544,-0.02448856,-0.0047912399999999996,-0.00678759,1746802387152971
0.348634,-9.576372000000001,-0.68471,-0.024887829999999996,-0.0053235999999999995,-0.0073199499999999995,1746802407126391
0.336076,-9.569196,-0.707434,-0.024355469999999997,-0.00412579,-0.008118489999999999,1746802427099891
0.357006,-9.563814,-0.67574,-0.024222379999999998,-0.00519051,-0.007586129999999999,1746801448073391
0.349232,-9.569196,-0.658996,-0.02462165,-0.00505742,-0.006654499999999999,1746801468046831
0.355212,-9.572186,-0.66378,-0.02462165,-0.004924329999999999,-0.00785231,1746801488020371
0.351026,-9.57697,-0.711022,-0.02448856,-0.005589779999999999,-0.007053769999999999,1746801507993811
0.354016,-9.554844000000001,-0.700258,-0.02369002,-0.0053235999999999995,-0.0073199499999999995,1746801527967271
0.345644,-9.567402,-0.688896,-0.023956199999999997,-0.00572287,-0.00718686,1746801547940711
0.356408,-9.563814,-0.689494,-0.024355469999999997,-0.00572287,-0.007586129999999999,1746801567914091
0.351026,-9.566206,-0.689494,-0.02502092,-0.004924329999999999,-0.006920679999999999,1746801587887811
0.345644,-9.557834,-0.697866,-0.025952549999999998,-0.0053235999999999995,-0.006920679999999999,1746801607861311
0.341458,-9.569196,-0.719992,-0.024355469999999997,-0.00519051,-0.00678759,1746801627834731
0.348634,-9.561422,-0.670358,-0.02462165,-0.00519051,-0.007053769999999999,1746801647808071
0.35282,-9.567402,-0.678132,-0.023956199999999997,-0.0053235999999999995,-0.0073199499999999995,1746801667781551
0.346242,-9.562618,-0.6578,-0.024222379999999998,-0.0058559599999999995,-0.007453039999999999,1746801687755051
0.339066,-9.569196,-0.67873,-0.025154009999999997,-0.005456689999999999,-0.005989049999999999,1746801707728531
0.339664,-9.560824,-0.659594,-0.024355469999999997,-0.0047912399999999996,-0.00718686,1746801727702091
0.358202,-9.568,-0.692484,-0.02408929,-0.0039927,-0.007453039999999999,1746801747675491
0.352222,-9.565010000000001,-0.685906,-0.024355469999999997,-0.004924329999999999,-0.006654499999999999,1746801767648951
0.357006,-9.552452,-0.677534,-0.023956199999999997,-0.0053235999999999995,-0.006521409999999999,1746801787622431
0.363584,-9.575774000000001,-0.682318,-0.025287099999999996,-0.00519051,-0.008118489999999999,1746801807595931
0.361192,-9.560226,-0.681122,-0.02448856,-0.004525059999999999,-0.00678759,1746801827569411
0.333684,-9.551854,-0.708032,-0.024222379999999998,-0.0047912399999999996,-0.007053769999999999,1746801847542911
0.339664,-9.574578,-0.687102,-0.024222379999999998,-0.0053235999999999995,-0.00678759,1746801867516411
0.35581,-9.561422,-0.678132,-0.02369002,-0.00519051,-0.007453039999999999,1746801887489811
0.352222,-9.561422,-0.686504,-0.02408929,-0.004391969999999999,-0.0079854,1746801907463291
0.347438,-9.560824,-0.691886,-0.02448856,-0.0053235999999999995,-0.007053769999999999,1746801927436731
0.359996,-9.560226,-0.683514,-0.02462165,-0.0053235999999999995,-0.006920679999999999,1746801947410291
0.362388,-9.558432,-0.668564,-0.025686369999999997,-0.00505742,-0.00718686,1746801967383691
0.357006,-9.55006,-0.694876,-0.024222379999999998,-0.005456689999999999,-0.007453039999999999,1746801987357091
0.361192,-9.55604,-0.679926,-0.024222379999999998,-0.00465815,-0.006920679999999999,1746802007330511
0.354016,-9.563814,-0.679328,-0.02448856,-0.005589779999999999,-0.006388319999999999,1746802027304011
0.347438,-9.580558,-0.70863,-0.024355469999999997,-0.00572287,-0.0073199499999999995,1746802047277451
0.34086,-9.575774000000001,-0.694876,-0.023556929999999997,-0.0053235999999999995,-0.007719219999999999,1746802067250751
0.35581,-9.559628,-0.690092,-0.024887829999999996,-0.00425888,-0.00785231,1746802087224131
0.361192,-9.555442,-0.655408,-0.023823109999999998,-0.0047912399999999996,-0.0073199499999999995,1746802107197611
0.351026,-9.563216,-0.685906,-0.02502092,-0.0053235999999999995,-0.006920679999999999,1746802127171071
0.363584,-9.569196,-0.69069,-0.02462165,-0.00612214,-0.007719219999999999,1746802147144531
0.329498,-9.566206,-0.671554,-0.024887829999999996,-0.0047912399999999996,-0.00785231,1746802167117971
0.354016,-9.560226,-0.67275,-0.024222379999999998,-0.005989049999999999,-0.0073199499999999995,1746802187091431
0.344448,-9.575176,-0.664378,-0.023556929999999997,-0.00625523,-0.00718686,1746802207064911
0.344448,-9.564412,-0.6733480000000001,-0.02462165,-0.004924329999999999,-0.00718686,1746802227038211
0.354614,-9.561422,-0.706836,-0.025287099999999996,-0.004924329999999999,-0.00678759,1746802247011631
0.368966,-9.556638,-0.677534,-0.02408929,-0.005589779999999999,-0.007453039999999999,1746802266985071
0.350428,-9.562618,-0.694876,-0.024887829999999996,-0.00572287,-0.00678759,1746802286958631
0.349232,-9.564412,-0.668564,-0.02448856,-0.0047912399999999996,-0.00718686,1746802306932111
0.35581,-9.572186,-0.685906,-0.024355469999999997,-0.005589779999999999,-0.007053769999999999,1746802326905571
0.351624,-9.55903,-0.6625840000000001,-0.02408929,-0.00612214,-0.007586129999999999,1746802346878951
0.359996,-9.579362,-0.657202,-0.02502092,-0.0047912399999999996,-0.007586129999999999,1746802366852271
0.351026,-9.560226,-0.690092,-0.02462165,-0.004924329999999999,-0.006920679999999999,1746802386825871
0.353418,-9.561422,-0.692484,-0.025287099999999996,-0.004924329999999999,-0.007053769999999999,1746802406799291
0.367172,-9.55903,-0.6996600000000001,-0.02462165,-0.00465815,-0.008384669999999999,1746802426772711
0.349232,-9.566804,-0.691886,-0.023823109999999998,-0.005989049999999999,-0.007719219999999999,1746801447746191
0.326508,-9.562618,-0.701454,-0.025686369999999997,-0.00625523,-0.0073199499999999995,1746801467719691
0.351624,-9.557236,-0.686504,-0.025154009999999997,-0.00519051,-0.00678759,1746801487693111
0.35282,-9.568598,-0.679926,-0.024222379999999998,-0.0053235999999999995,-0.007719219999999999,1746801507666531
0.350428,-9.569196,-0.686504,-0.02502092,-0.0053235999999999995,-0.007453039999999999,1746801527640011
0.357006,-9.55305,-0.685308,-0.024355469999999997,-0.004924329999999999,-0.007453039999999999,1746801547613571
0.339664,-9.565010000000001,-0.68471,-0.02408929,-0.00465815,-0.006920679999999999,1746801567587111
0.345046,-9.563216,-0.695474,-0.02462165,-0.0053235999999999995,-0.008118489999999999,1746801587560451
0.35581,-9.557834,-0.677534,-0.02462165,-0.0058559599999999995,-0.0073199499999999995,1746801607533911
0.34983000000000003,-9.563216,-0.679328,-0.024222379999999998,-0.0053235999999999995,-0.007719219999999999,1746801627507511
0.348634,-9.568598,-0.678132,-0.02408929,-0.004525059999999999,-0.00718686,1746801647481011
0.346242,-9.564412,-0.675142,-0.023956199999999997,-0.00519051,-0.007586129999999999,1746801667454451
0.34385,-9.566804,-0.67873,-0.02408929,-0.004924329999999999,-0.007053769999999999,1746801687427891
0.344448,-9.560824,-0.706238,-0.023956199999999997,-0.005456689999999999,-0.007719219999999999,1746801707401511
0.35282,-9.566804,-0.697268,-0.024355469999999997,-0.00519051,-0.006920679999999999,1746801727374991
0.352222,-9.558432,-0.682916,-0.024887829999999996,-0.00519051,-0.0073199499999999995,1746801747348511
0.348634,-9.569196,-0.703248,-0.024222379999999998,-0.0058559599999999995,-0.006920679999999999,1746801767321911
0.357604,-9.564412,-0.685308,-0.025553279999999998,-0.0038596099999999994,-0.006521409999999999,1746801787295271
0.338468,-9.566206,-0.679328,-0.02448856,-0.004391969999999999,-0.0079854,1746801807268711
0.329498,-9.549462,-0.687102,-0.02448856,-0.00519051,-0.006388319999999999,1746801827242271
0.344448,-9.585342,-0.684112,-0.022758389999999996,-0.00465815,-0.007453039999999999,1746801847215811
0.351624,-9.569196,-0.671554,-0.024355469999999997,-0.0037265199999999997,-0.007053769999999999,1746801867189271
0.345046,-9.566206,-0.6877,-0.02369002,-0.004924329999999999,-0.007586129999999999,1746801887162771
0.337272,-9.560824,-0.676338,-0.024887829999999996,-0.00572287,-0.0073199499999999995,1746801907136351
0.33787,-9.55903,-0.69069,-0.025553279999999998,-0.006388319999999999,-0.007453039999999999,1746801927109811
0.359996,-9.564412,-0.682318,-0.02408929,-0.00612214,-0.009050119999999998,1746801947083351
0.35282,-9.56202,-0.70863,-0.02408929,-0.00612214,-0.00718686,1746801967056871
0.342654,-9.562618,-0.679328,-0.024222379999999998,-0.0047912399999999996,-0.00678759,1746801987030471
0.330694,-9.566206,-0.677534,-0.024754739999999997,-0.0053235999999999995,-0.007586129999999999,1746802007004011
0.33667400000000003,-9.566206,-0.676936,-0.02502092,-0.0053235999999999995,-0.00785231,1746802026977331
0.36298600000000003,-9.568,-0.673946,-0.023823109999999998,-0.005589779999999999,-0.006654499999999999,1746802046950891
0.348036,-9.566804,-0.681122,-0.023823109999999998,-0.00465815,-0.007719219999999999,1746802066924511
0.354614,-9.573382,-0.68471,-0.023823109999999998,-0.0047912399999999996,-0.007586129999999999,1746802086898011
0.342056,-9.574578,-0.709228,-0.02462165,-0.00505742,-0.00718686,1746802106871491
0.354016,-9.563216,-0.681122,-0.025287099999999996,-0.004391969999999999,-0.00678759,1746802126844871
0.345046,-9.557834,-0.683514,-0.025154009999999997,-0.00519051,-0.006388319999999999,1746802146818591
0.34385,-9.57398,-0.67574,-0.023956199999999997,-0.00572287,-0.0073199499999999995,1746802166792231
0.35581,-9.55305,-0.674544,-0.02329075,-0.00425888,-0.007053769999999999,1746802186765631
0.349232,-9.560824,-0.68471,-0.02408929,-0.004924329999999999,-0.007053769999999999,1746802206739131
0.354016,-9.568,-0.677534,-0.023823109999999998,-0.005456689999999999,-0.007053769999999999,1746802226712631
0.354016,-9.560226,-0.685308,-0.024355469999999997,-0.00572287,-0.005589779999999999,1746802246686111
0.34086,-9.544678,-0.671554,-0.024887829999999996,-0.005589779999999999,-0.007053769999999999,1746802266659371
0.34385,-9.554844000000001,-0.709826,-0.023956199999999997,-0.005456689999999999,-0.00718686,1746802286632851
0.357604,-9.563814,-0.697866,-0.023823109999999998,-0.005456689999999999,-0.00718686,1746802306606351
0.354016,-9.554844000000001,-0.695474,-0.02502092,-0.00465815,-0.00625523,1746802326579951
0.34983000000000003,-9.575774000000001,-0.678132,-0.023423839999999998,-0.0053235999999999995,-0.006521409999999999,1746802346553391
0.361192,-9.577568,-0.691886,-0.024754739999999997,-0.0053235999999999995,-0.006521409999999999,1746802366526831
0.349232,-9.549462,-0.684112,-0.02542019,-0.00425888,-0.007053769999999999,1746802386500331
0.334282,-9.558432,-0.672152,-0.02502092,-0.00412579,-0.006654499999999999,1746802406473891
0.353418,-9.559628,-0.67873,-0.023956199999999997,-0.005589779999999999,-0.006388319999999999,1746802426447431
0.34385,-9.569794,-0.691288,-0.023423839999999998,-0.00465815,-0.006920679999999999,1746801447420971
0.34684,-9.575176,-0.68172,-0.02448856,-0.004924329999999999,-0.0079854,1746801467394371
0.34385,-9.567402,-0.679926,-0.02448856,-0.004391969999999999,-0.00718686,1746801487368011
0.357006,-9.555442,-0.691886,-0.02448856,-0.00465815,-0.0073199499999999995,1746801507341391
0.363584,-9.57398,-0.69368,-0.02542019,-0.0053235999999999995,-0.00785231,1746801527314951
0.341458,-9.572784,-0.678132,-0.023956199999999997,-0.0047912399999999996,-0.007586129999999999,1746801547288371
0.356408,-9.571588,-0.707434,-0.02408929,-0.00505742,-0.00718686,1746801567261851
0.352222,-9.563216,-0.672152,-0.02408929,-0.004525059999999999,-0.00718686,1746801587235251
0.365378,-9.555442,-0.679926,-0.02462165,-0.0058559599999999995,-0.00625523,1746801607208611
0.33787,-9.571588,-0.697866,-0.02369002,-0.004924329999999999,-0.006521409999999999,1746801627182211
0.345046,-9.561422,-0.66976,-0.02502092,-0.004924329999999999,-0.006654499999999999,1746801647155731
0.347438,-9.568598,-0.666172,-0.024222379999999998,-0.004391969999999999,-0.006654499999999999,1746801667129351
0.346242,-9.570392,-0.681122,-0.025287099999999996,-0.00505742,-0.006654499999999999,1746801687102851
0.357006,-9.557236,-0.691288,-0.02462165,-0.00465815,-0.006920679999999999,1746801707076351
0.347438,-9.570392,-0.682916,-0.025154009999999997,-0.00465815,-0.007053769999999999,1746801727049711
0.356408,-9.554844000000001,-0.659594,-0.025154009999999997,-0.005456689999999999,-0.00718686,1746801747023031
0.34983000000000003,-9.548266,-0.689494,-0.023956199999999997,-0.0053235999999999995,-0.006920679999999999,1746801766996631
0.370162,-9.563814,-0.6942780000000001,-0.023956199999999997,-0.00505742,-0.007053769999999999,1746801786969851
0.351026,-9.553648,-0.687102,-0.024222379999999998,-0.0047912399999999996,-0.00678759,1746801806943111
0.341458,-9.583548,-0.688896,-0.024887829999999996,-0.00519051,-0.00678759,1746801826916451
0.356408,-9.57099,-0.6733480000000001,-0.025287099999999996,-0.00465815,-0.008118489999999999,1746801846889951
0.350428,-9.560226,-0.706238,-0.024887829999999996,-0.00519051,-0.008118489999999999,1746801866863391
0.357006,-9.557834,-0.704444,-0.023823109999999998,-0.005456689999999999,-0.007586129999999999,1746801886836931
0.349232,-9.559628,-0.701454,-0.024887829999999996,-0.004525059999999999,-0.0073199499999999995,1746801906810471
0.355212,-9.574578,-0.667368,-0.024754739999999997,-0.00412579,-0.00851776,1746801926783971
0.353418,-9.57697,-0.70265,-0.025686369999999997,-0.00425888,-0.0079854,1746801946757411
0.36478,-9.565608000000001,-0.670358,-0.02408929,-0.00465815,-0.007586129999999999,1746801966730811
0.35282,-9.556638,-0.691288,-0.02448856,-0.005456689999999999,-0.007586129999999999,1746801986704171
0.36836800000000003,-9.557834,-0.69069,-0.024754739999999997,-0.00505742,-0.00785231,1746802006677811
0.356408,-9.55903,-0.711022,-0.02462165,-0.0047912399999999996,-0.007719219999999999,1746802026651271
0.348036,-9.572186,-0.673946,-0.023423839999999998,-0.004391969999999999,-0.00785231,1746802046624691
0.344448,-9.55903,-0.698464,-0.023823109999999998,-0.0047912399999999996,-0.006920679999999999,1746802066598171
0.347438,-9.566206,-0.682318,-0.024754739999999997,-0.00505742,-0.0079854,1746802086571611
0.3588,-9.561422,-0.676936,-0.024355469999999997,-0.004525059999999999,-0.0073199499999999995,1746802106545031
0.359996,-9.571588,-0.709228,-0.023823109999999998,-0.0033272499999999995,-0.00678759,1746802126518251
0.34983000000000003,-9.570392,-0.671554,-0.023423839999999998,-0.005456689999999999,-0.00825158,1746802146491911
0.35581,-9.562618,-0.670358,-0.02369002,-0.0039927,-0.00678759,1746802166465331
0.344448,-9.548864,-0.685906,-0.02502092,-0.00465815,-0.00718686,1746802186438891
0.34684,-9.564412,-0.673946,-0.02462165,-0.00465815,-0.007053769999999999,1746802206412271
0.344448,-9.57099,-0.699062,-0.025154009999999997,-0.00505742,-0.007586129999999999,1746802226385671
0.34983000000000003,-9.553648,-0.676936,-0.024887829999999996,-0.005456689999999999,-0.007453039999999999,1746802246359171
0.355212,-9.568,-0.688896,-0.02408929,-0.00505742,-0.007053769999999999,1746802266332551
0.345644,-9.558432,-0.682916,-0.02369002,-0.0047912399999999996,-0.006654499999999999,1746802286306011
0.342654,-9.572186,-0.67873,-0.02408929,-0.00465815,-0.007053769999999999,1746802306279371
0.34086,-9.557834,-0.675142,-0.024754739999999997,-0.00505742,-0.0073199499999999995,1746802326252751
0.348634,-9.55305,-0.679328,-0.02462165,-0.005456689999999999,-0.00718686,1746802346226071
0.346242,-9.564412,-0.683514,-0.024355469999999997,-0.00519051,-0.0079854,1746802366199531
0.3588,-9.575176,-0.684112,-0.024222379999999998,-0.0053235999999999995,-0.00625523,1746802386173031
0.349232,-9.55903,-0.671554,-0.02408929,-0.0053235999999999995,-0.00678759,1746802406146471
0.348036,-9.57996,-0.696072,-0.023556929999999997,-0.0053235999999999995,-0.0073199499999999995,1746802426120011
0.339664,-9.566804,-0.688896,-0.02502092,-0.0038596099999999994,-0.00865085,1746801447093531
0.348036,-9.569196,-0.681122,-0.02542019,-0.004525059999999999,-0.007719219999999999,1746801467067051
0.361192,-9.573382,-0.674544,-0.025154009999999997,-0.00519051,-0.007453039999999999,1746801487040531
0.357006,-9.577568,-0.690092,-0.02408929,-0.0053235999999999995,-0.006654499999999999,1746801507013931
0.34385,-9.561422,-0.660192,-0.023823109999999998,-0.004924329999999999,-0.007586129999999999,1746801526987411
0.353418,-9.584744,-0.668564,-0.02448856,-0.00519051,-0.007586129999999999,1746801546960971
0.344448,-9.56202,-0.676338,-0.024222379999999998,-0.00465815,-0.0073199499999999995,1746801566934411
0.339066,-9.568,-0.704444,-0.024355469999999997,-0.00519051,-0.0079854,1746801586907811
