ax,ay,az,rx,ry,rz,timestamp
0.196144,0.178802,9.2989,-0.024355469999999997,-0.004924329999999999,-0.008384669999999999,1746802360713844
0.199134,0.186576,9.297106,-0.024355469999999997,-0.0053235999999999995,-0.009050119999999998,1746802380690064
0.206908,0.18418400000000001,9.296508,-0.024355469999999997,-0.005456689999999999,-0.008783939999999999,1746802400666324
0.19435,0.174018,9.294714,-0.025154009999999997,-0.00572287,-0.0073199499999999995,1746802420642444
0.197938,0.182988,9.297704,-0.024355469999999997,-0.005456689999999999,-0.006920679999999999,1746802440618564
0.20033,0.18837,9.305478,-0.02369002,-0.00519051,-0.0073199499999999995,1746802460594664
0.193752,0.181194,9.276774,-0.02369002,-0.00612214,-0.007719219999999999,1746802480570764
0.21049600000000002,0.1794,9.289332,-0.023423839999999998,-0.0058559599999999995,-0.00718686,1746802500546964
0.205114,0.178802,9.314448,-0.023823109999999998,-0.00572287,-0.007719219999999999,1746802520522424
0.217672,0.177008,9.301292,-0.023556929999999997,-0.00519051,-0.00785231,1746802540498564
0.208104,0.17342,9.293518,-0.023423839999999998,-0.00505742,-0.00851776,1746802560474704
0.19136,0.181792,9.279764,-0.023423839999999998,-0.005989049999999999,-0.008118489999999999,1746802580450804
0.208702,0.187174,9.284548000000001,-0.023823109999999998,-0.0058559599999999995,-0.00785231,1746802600426964
0.20391800000000002,0.17641,9.2989,-0.024355469999999997,-0.00519051,-0.007453039999999999,1746802620403144
0.212888,0.18239,9.281558,-0.024355469999999997,-0.005589779999999999,-0.007053769999999999,1746802640379344
0.208104,0.18418400000000001,9.306674,-0.02448856,-0.005589779999999999,-0.00785231,1746802660355284
0.206908,0.179998,9.29591,-0.024222379999999998,-0.00465815,-0.007586129999999999,1746802680331484
0.218868,0.169234,9.280362,-0.023823109999999998,-0.005989049999999999,-0.00718686,1746802700307524
0.207506,0.189566,9.306674,-0.023423839999999998,-0.0058559599999999995,-0.0079854,1746802720283644
0.21049600000000002,0.187174,9.313252,-0.023423839999999998,-0.004924329999999999,-0.008384669999999999,1746802740259824
0.198536,0.187772,9.291126,-0.023956199999999997,-0.00412579,-0.007719219999999999,1746802760236064
0.191958,0.172224,9.2989,-0.023024569999999998,-0.00465815,-0.00865085,1746801781212264
0.19076200000000001,0.16744,9.297704,-0.023823109999999998,-0.004924329999999999,-0.008118489999999999,1746801801188404
0.202722,0.19136,9.269598,-0.023823109999999998,-0.00572287,-0.0079854,1746801821164064
0.206908,0.17043,9.315644,-0.02369002,-0.0053235999999999995,-0.0079854,1746801841140184
0.208104,0.178204,9.2989,-0.02462165,-0.005589779999999999,-0.007719219999999999,1746801861116364
0.202124,0.178802,9.303684,-0.02502092,-0.005589779999999999,-0.00891703,1746801881092484
0.19734000000000002,0.181792,9.300096,-0.02502092,-0.005589779999999999,-0.009050119999999998,1746801901068584
0.194948,0.19076200000000001,9.316840000000001,-0.024355469999999997,-0.00465815,-0.00851776,1746801921044804
0.21229,0.185978,9.316840000000001,-0.023423839999999998,-0.004924329999999999,-0.0079854,1746801941020964
0.20391800000000002,0.179998,9.319232,-0.023024569999999998,-0.00505742,-0.0073199499999999995,1746801960997084
0.202124,0.177008,9.309066,-0.02462165,-0.005589779999999999,-0.00718686,1746801980973204
0.204516,0.187772,9.306076000000001,-0.023157659999999997,-0.00519051,-0.007586129999999999,1746802000949424
0.212888,0.178204,9.290528,-0.023556929999999997,-0.00505742,-0.00785231,1746802020925544
0.20631,0.174616,9.282754,-0.024222379999999998,-0.00519051,-0.00785231,1746802040901624
0.202124,0.1794,9.310262,-0.023956199999999997,-0.00519051,-0.007586129999999999,1746802060877944
0.200928,0.181194,9.30488,-0.02502092,-0.00505742,-0.00825158,1746802080854144
0.205712,0.166842,9.300694,-0.024355469999999997,-0.00465815,-0.0079854,1746802100830344
0.212888,0.182988,9.294116,-0.02369002,-0.005589779999999999,-0.0079854,1746802120806544
0.200928,0.184782,9.29292,-0.02369002,-0.005989049999999999,-0.008384669999999999,1746802140782804
0.192556,0.172224,9.309664,-0.025287099999999996,-0.00572287,-0.008118489999999999,1746802160758944
0.202124,0.178204,9.284548000000001,-0.02462165,-0.005456689999999999,-0.007053769999999999,1746802180735204
0.208702,0.17641,9.292322,-0.02369002,-0.005589779999999999,-0.008118489999999999,1746802200711444
0.201526,0.186576,9.29292,-0.02369002,-0.00612214,-0.007719219999999999,1746802220687664
0.201526,0.1794,9.298302,-0.02369002,-0.005456689999999999,-0.007586129999999999,1746802240663884
0.211094,0.185978,9.287538,-0.02462165,-0.0053235999999999995,-0.007053769999999999,1746802260640044
0.212888,0.178802,9.282754,-0.024754739999999997,-0.004924329999999999,-0.00785231,1746802280616284
0.199732,0.174018,9.30189,-0.02462165,-0.00519051,-0.007453039999999999,1746802300592524
0.192556,0.181792,9.303086,-0.02408929,-0.00505742,-0.006521409999999999,1746802320568664
0.200928,0.187174,9.28694,-0.02408929,-0.00519051,-0.007586129999999999,1746802340544824
0.213486,0.181792,9.293518,-0.023556929999999997,-0.00572287,-0.00785231,1746802360520964
0.20391800000000002,0.188968,9.286342,-0.02408929,-0.004525059999999999,-0.00825158,1746802380497224
0.187174,0.181194,9.278568,-0.02408929,-0.00425888,-0.00865085,1746802400473324
0.21229,0.18239,9.311458,-0.024355469999999997,-0.005456689999999999,-0.007719219999999999,1746802420449484
0.199732,0.188968,9.291126,-0.02502092,-0.004924329999999999,-0.0073199499999999995,1746802440425664
0.196742,0.172822,9.2989,-0.023956199999999997,-0.00612214,-0.006654499999999999,1746802460401864
0.194948,0.183586,9.31385,-0.023556929999999997,-0.00519051,-0.007586129999999999,1746802480377964
0.205712,0.196144,9.308468,-0.023956199999999997,-0.005456689999999999,-0.00865085,1746802500354084
0.199732,0.181792,9.295312000000001,-0.02408929,-0.0053235999999999995,-0.00785231,1746802520330224
0.193752,0.177606,9.296508,-0.024355469999999997,-0.0053235999999999995,-0.00718686,1746802540306504
0.205712,0.19136,9.273186,-0.02462165,-0.00572287,-0.00785231,1746802560282484
0.202722,0.182988,9.297704,-0.023956199999999997,-0.004391969999999999,-0.00891703,1746802580258624
0.202722,0.172822,9.312056,-0.023823109999999998,-0.00412579,-0.008384669999999999,1746802600234804
0.197938,0.181194,9.312056,-0.02448856,-0.005456689999999999,-0.0073199499999999995,1746802620210964
0.200928,0.183586,9.29292,-0.024222379999999998,-0.004924329999999999,-0.00865085,1746802640187044
0.20391800000000002,0.184782,9.31086,-0.024222379999999998,-0.004391969999999999,-0.00825158,1746802660163184
0.208104,0.177008,9.28395,-0.02462165,-0.004924329999999999,-0.00785231,1746802680139404
0.205114,0.18418400000000001,9.291724,-0.024887829999999996,-0.005589779999999999,-0.0073199499999999995,1746802700115464
0.204516,0.178204,9.290528,-0.02502092,-0.005456689999999999,-0.008118489999999999,1746802720091624
0.188968,0.182988,9.294714,-0.024222379999999998,-0.005589779999999999,-0.007453039999999999,1746802740067784
0.207506,0.17641,9.300694,-0.024355469999999997,-0.00519051,-0.007719219999999999,1746802760043924
0.206908,0.183586,9.315644,-0.023423839999999998,-0.00519051,-0.0079854,1746801781019964
0.206908,0.182988,9.306076000000001,-0.024222379999999998,-0.00519051,-0.00851776,1746801800996184
0.202124,0.174018,9.30488,-0.024887829999999996,-0.00519051,-0.008384669999999999,1746801820972284
0.2093,0.17342,9.314448,-0.023423839999999998,-0.0053235999999999995,-0.007586129999999999,1746801840948364
0.20631,0.17043,9.274382,-0.022625299999999997,-0.00505742,-0.008118489999999999,1746801860924504
0.198536,0.190164,9.304282,-0.023423839999999998,-0.00425888,-0.007453039999999999,1746801880900684
0.21587800000000001,0.187174,9.292322,-0.02408929,-0.005589779999999999,-0.0079854,1746801900876944
0.20391800000000002,0.177008,9.295312000000001,-0.024754739999999997,-0.00412579,-0.00825158,1746801920853084
0.199134,0.18239,9.309664,-0.024887829999999996,-0.0053235999999999995,-0.008118489999999999,1746801940829224
0.212888,0.19076200000000001,9.303684,-0.024355469999999997,-0.00572287,-0.007053769999999999,1746801960805344
0.2093,0.18538,9.293518,-0.023024569999999998,-0.005456689999999999,-0.0079854,1746801980781444
0.205114,0.171028,9.28993,-0.02369002,-0.005589779999999999,-0.00891703,1746802000757684
0.206908,0.184782,9.30488,-0.023823109999999998,-0.0058559599999999995,-0.007719219999999999,1746802020733784
0.200928,0.180596,9.291126,-0.023423839999999998,-0.005589779999999999,-0.00865085,1746802040709944
0.208702,0.19734000000000002,9.309066,-0.024222379999999998,-0.00572287,-0.00825158,1746802060686104
0.211692,0.172822,9.306076000000001,-0.023956199999999997,-0.00612214,-0.008118489999999999,1746802080662164
0.199134,0.187174,9.300694,-0.02369002,-0.0058559599999999995,-0.007719219999999999,1746802100638304
0.20033,0.18418400000000001,9.281558,-0.02408929,-0.005589779999999999,-0.00718686,1746802120614524
0.21587800000000001,0.175812,9.306076000000001,-0.024355469999999997,-0.005456689999999999,-0.008118489999999999,1746802140590684
0.20391800000000002,0.16744,9.32282,-0.024222379999999998,-0.004924329999999999,-0.00825158,1746802160566904
0.194948,0.17641,9.288136,-0.023823109999999998,-0.0053235999999999995,-0.008384669999999999,1746802180542944
0.20631,0.172224,9.279764,-0.02369002,-0.0053235999999999995,-0.00785231,1746802200519124
0.211692,0.16445,9.285744,-0.023823109999999998,-0.00572287,-0.007586129999999999,1746802220495324
0.19076200000000001,0.187174,9.297106,-0.023157659999999997,-0.0058559599999999995,-0.00825158,1746802240471484
0.205114,0.191958,9.288136,-0.024222379999999998,-0.00519051,-0.0093163,1746802260447624
0.196144,0.184782,9.312056,-0.023956199999999997,-0.00505742,-0.00825158,1746802280423784
0.198536,0.169832,9.286342,-0.02329075,-0.004525059999999999,-0.007586129999999999,1746802300399964
0.206908,0.181792,9.315644,-0.024222379999999998,-0.0047912399999999996,-0.00785231,1746802320376084
0.196742,0.178802,9.286342,-0.024222379999999998,-0.00505742,-0.0073199499999999995,1746802340352284
0.21229,0.1794,9.296508,-0.02408929,-0.00572287,-0.007586129999999999,1746802360328464
0.207506,0.18418400000000001,9.302488,-0.02369002,-0.004525059999999999,-0.007053769999999999,1746802380304664
0.196144,0.178204,9.283352,-0.023423839999999998,-0.00505742,-0.00678759,1746802400280864
0.200928,0.18418400000000001,9.298302,-0.02408929,-0.0047912399999999996,-0.007453039999999999,1746802420257004
0.193752,0.175812,9.294714,-0.023157659999999997,-0.0039927,-0.007053769999999999,1746802440233244
0.207506,0.169234,9.300694,-0.023556929999999997,-0.00465815,-0.00678759,1746802460209404
0.20332,0.171626,9.285744,-0.023556929999999997,-0.00505742,-0.00851776,1746802480185604
0.206908,0.18239,9.311458,-0.023556929999999997,-0.004525059999999999,-0.00785231,1746802500161724
0.202124,0.165048,9.296508,-0.023556929999999997,-0.00465815,-0.007719219999999999,1746802520137864
0.19435,0.191958,9.28993,-0.024222379999999998,-0.004391969999999999,-0.00865085,1746802540113984
0.208104,0.168636,9.31385,-0.02329075,-0.0053235999999999995,-0.00851776,1746802560090144
0.195546,0.181792,9.312654,-0.02369002,-0.004924329999999999,-0.007053769999999999,1746802580066284
0.195546,0.172822,9.323418,-0.02408929,-0.00425888,-0.0079854,1746802600042524
0.211094,0.174616,9.291724,-0.024222379999999998,-0.00505742,-0.008384669999999999,1746802620018844
0.197938,0.17641,9.321624,-0.02369002,-0.0047912399999999996,-0.008118489999999999,1746802639995004
0.196144,0.175214,9.307272,-0.023423839999999998,-0.004924329999999999,-0.00825158,1746802659971104
0.19734000000000002,0.18239,9.287538,-0.023556929999999997,-0.00505742,-0.00718686,1746802679947204
0.211094,0.175812,9.281558,-0.023956199999999997,-0.004924329999999999,-0.008384669999999999,1746802699923344
0.200928,0.181792,9.278568,-0.023956199999999997,-0.00465815,-0.00785231,1746802719899524
0.205114,0.180596,9.297106,-0.025154009999999997,-0.00505742,-0.008384669999999999,1746802739875744
0.18418400000000001,0.174616,9.290528,-0.024222379999999998,-0.00425888,-0.00718686,1746802759851864
0.189566,0.175812,9.291724,-0.02408929,-0.004525059999999999,-0.007719219999999999,1746801780827984
0.212888,0.18239,9.28096,-0.023423839999999998,-0.00519051,-0.00678759,1746801800804144
0.217672,0.180596,9.276176,-0.02329075,-0.004924329999999999,-0.00718686,1746801820780284
0.219466,0.182988,9.323418,-0.024355469999999997,-0.00425888,-0.007586129999999999,1746801840756464
0.19136,0.194948,9.28993,-0.02408929,-0.00465815,-0.007586129999999999,1746801860732704
0.20033,0.18418400000000001,9.316242,-0.02329075,-0.005456689999999999,-0.00851776,1746801880708784
0.197938,0.180596,9.27498,-0.023157659999999997,-0.004391969999999999,-0.008384669999999999,1746801900684964
0.200928,0.193752,9.303086,-0.022758389999999996,-0.00465815,-0.00851776,1746801920661084
0.193752,0.177008,9.270794,-0.023423839999999998,-0.0047912399999999996,-0.0079854,1746801940637204
0.20631,0.181194,9.277372,-0.024355469999999997,-0.0058559599999999995,-0.00785231,1746801960613364
0.205712,0.183586,9.28993,-0.023956199999999997,-0.004924329999999999,-0.00718686,1746801980589504
0.20033,0.18239,9.2989,-0.023423839999999998,-0.00572287,-0.008384669999999999,1746802000565644
0.2093,0.177008,9.27498,-0.024355469999999997,-0.00625523,-0.007586129999999999,1746802020541784
0.212888,0.187772,9.305478,-0.023423839999999998,-0.00519051,-0.007053769999999999,1746802040517924
0.199732,0.184782,9.296508,-0.023823109999999998,-0.00519051,-0.007053769999999999,1746802060494184
0.21528,0.187772,9.304282,-0.024355469999999997,-0.004924329999999999,-0.008384669999999999,1746802080470264
0.191958,0.174018,9.321026,-0.024754739999999997,-0.004924329999999999,-0.008118489999999999,1746802100446484
0.204516,0.18418400000000001,9.31086,-0.024222379999999998,-0.00519051,-0.008118489999999999,1746802120422664
0.206908,0.177008,9.300096,-0.02329075,-0.0053235999999999995,-0.0079854,1746802140398784
0.199134,0.178802,9.28395,-0.023556929999999997,-0.0047912399999999996,-0.008384669999999999,1746802160375004
0.214084,0.187174,9.289332,-0.024222379999999998,-0.00465815,-0.008384669999999999,1746802180351124
0.198536,0.18239,9.301292,-0.02462165,-0.004924329999999999,-0.008118489999999999,1746802200327204
0.198536,0.184782,9.300096,-0.023823109999999998,-0.00505742,-0.008118489999999999,1746802220303344
0.21229,0.175214,9.284548000000001,-0.024355469999999997,-0.00519051,-0.00851776,1746802240279504
0.19734000000000002,0.178204,9.297106,-0.02369002,-0.005589779999999999,-0.0079854,1746802260255604
0.20631,0.1794,9.299498,-0.023956199999999997,-0.0047912399999999996,-0.008118489999999999,1746802280231724
0.199134,0.186576,9.332986,-0.02329075,-0.00505742,-0.008384669999999999,1746802300207884
0.205114,0.1794,9.313252,-0.02408929,-0.00572287,-0.007453039999999999,1746802320183964
0.20332,0.181194,9.309664,-0.023423839999999998,-0.0039927,-0.007719219999999999,1746802340160204
0.20332,0.190164,9.30189,-0.024887829999999996,-0.00519051,-0.00825158,1746802360136384
0.205114,0.174616,9.304282,-0.023823109999999998,-0.005456689999999999,-0.0073199499999999995,1746802380112484
0.189566,0.191958,9.307272,-0.024355469999999997,-0.0053235999999999995,-0.008118489999999999,1746802400088604
0.204516,0.194948,9.301292,-0.023423839999999998,-0.0047912399999999996,-0.00825158,1746802420064704
0.21229,0.172224,9.305478,-0.024355469999999997,-0.005456689999999999,-0.007719219999999999,1746802440040764
0.211094,0.169234,9.305478,-0.024222379999999998,-0.00465815,-0.007719219999999999,1746802460016944
0.197938,0.168636,9.30488,-0.023823109999999998,-0.00612214,-0.007453039999999999,1746802479993124
0.213486,0.169234,9.291724,-0.02448856,-0.005589779999999999,-0.007453039999999999,1746802499969164
0.195546,0.179998,9.300096,-0.024355469999999997,-0.0058559599999999995,-0.00865085,1746802519945304
0.19435,0.168636,9.287538,-0.02462165,-0.0047912399999999996,-0.007586129999999999,1746802539921344
0.197938,0.187772,9.30488,-0.023956199999999997,-0.00505742,-0.007586129999999999,1746802559897584
0.200928,0.17641,9.281558,-0.023823109999999998,-0.005456689999999999,-0.00825158,1746802579873784
0.20631,0.16564600000000002,9.306674,-0.02448856,-0.00412579,-0.0079854,1746802599849944
0.204516,0.18538,9.291724,-0.023423839999999998,-0.0047912399999999996,-0.00825158,1746802619826064
0.202722,0.18418400000000001,9.30189,-0.024222379999999998,-0.005589779999999999,-0.007719219999999999,1746802639802184
0.202124,0.177008,9.298302,-0.023024569999999998,-0.005456689999999999,-0.0073199499999999995,1746802659778284
0.196742,0.17641,9.288734,-0.023556929999999997,-0.0053235999999999995,-0.007719219999999999,1746802679754364
0.193752,0.182988,9.310262,-0.02448856,-0.0058559599999999995,-0.00785231,1746802699730584
0.199732,0.184782,9.303086,-0.02462165,-0.006521409999999999,-0.006920679999999999,1746802719706724
0.19734000000000002,0.183586,9.321026,-0.023556929999999997,-0.0039927,-0.00785231,1746802739682844
0.208104,0.185978,9.30189,-0.024222379999999998,-0.00465815,-0.00718686,1746802759658964
0.198536,0.175214,9.294116,-0.023956199999999997,-0.0058559599999999995,-0.007719219999999999,1746801780635124
0.19734000000000002,0.172224,9.288136,-0.023157659999999997,-0.004525059999999999,-0.007586129999999999,1746801800611184
0.196742,0.184782,9.311458,-0.024355469999999997,-0.005589779999999999,-0.008118489999999999,1746801820587344
0.201526,0.175812,9.293518,-0.023157659999999997,-0.00519051,-0.008384669999999999,1746801840563664
0.188968,0.186576,9.317438000000001,-0.02369002,-0.00465815,-0.008118489999999999,1746801860539804
0.207506,0.175214,9.316242,-0.023423839999999998,-0.0053235999999999995,-0.00865085,1746801880515844
0.200928,0.172224,9.308468,-0.024222379999999998,-0.005456689999999999,-0.008783939999999999,1746801900491984
0.206908,0.177606,9.284548000000001,-0.02329075,-0.0053235999999999995,-0.008783939999999999,1746801920468044
0.205712,0.171626,9.309664,-0.023823109999999998,-0.00572287,-0.0093163,1746801940444324
0.196144,0.172224,9.293518,-0.023823109999999998,-0.00625523,-0.009183209999999999,1746801960420624
0.211094,0.193154,9.29292,-0.023157659999999997,-0.004924329999999999,-0.009449389999999998,1746801980396744
0.193752,0.17043,9.303684,-0.02289148,-0.0053235999999999995,-0.008118489999999999,1746802000372944
0.20631,0.180596,9.324016,-0.02369002,-0.005989049999999999,-0.0079854,1746802020349124
0.20033,0.190164,9.315644,-0.025287099999999996,-0.004924329999999999,-0.00785231,1746802040325224
0.206908,0.17342,9.293518,-0.023556929999999997,-0.00425888,-0.007453039999999999,1746802060301544
0.187174,0.16744,9.295312000000001,-0.02502092,-0.00505742,-0.00825158,1746802080277784
0.189566,0.190164,9.290528,-0.02448856,-0.00519051,-0.007719219999999999,1746802100254024
0.200928,0.175812,9.301292,-0.02369002,-0.00505742,-0.00678759,1746802120230204
0.211094,0.18538,9.303086,-0.02408929,-0.00505742,-0.007586129999999999,1746802140206384
0.195546,0.18239,9.290528,-0.024754739999999997,-0.0047912399999999996,-0.008118489999999999,1746802160182624
0.202722,0.175812,9.28096,-0.02462165,-0.00505742,-0.00851776,1746802180158784
0.187772,0.180596,9.306674,-0.023556929999999997,-0.004525059999999999,-0.00825158,1746802200134944
0.199134,0.182988,9.29591,-0.02369002,-0.00465815,-0.008118489999999999,1746802220111124
0.220662,0.189566,9.295312000000001,-0.023423839999999998,-0.00465815,-0.007586129999999999,1746802240087264
0.204516,0.166842,9.283352,-0.02408929,-0.0053235999999999995,-0.00825158,1746802260063444
0.206908,0.184782,9.288136,-0.023556929999999997,-0.00572287,-0.00865085,1746802280039664
0.205712,0.18837,9.29292,-0.02462165,-0.0053235999999999995,-0.008783939999999999,1746802300015944
0.191958,0.193752,9.269598,-0.024355469999999997,-0.004525059999999999,-0.00718686,1746802319992164
0.202722,0.17342,9.282754,-0.02462165,-0.004525059999999999,-0.007053769999999999,1746802339968204
0.202124,0.179998,9.303684,-0.02408929,-0.005589779999999999,-0.006920679999999999,1746802359944364
0.199732,0.179998,9.29292,-0.02448856,-0.005589779999999999,-0.007719219999999999,1746802379920524
0.193752,0.178802,9.29292,-0.02502092,-0.00505742,-0.0073199499999999995,1746802399896664
0.19136,0.177606,9.297106,-0.023956199999999997,-0.0047912399999999996,-0.008118489999999999,1746802419872864
0.196144,0.178802,9.291724,-0.024355469999999997,-0.005456689999999999,-0.007586129999999999,1746802439849004
0.21587800000000001,0.175812,9.291126,-0.02408929,-0.0053235999999999995,-0.007586129999999999,1746802459825264
0.202124,0.174018,9.294116,-0.023956199999999997,-0.0053235999999999995,-0.00785231,1746802479801304
0.211094,0.16146,9.297106,-0.023423839999999998,-0.004924329999999999,-0.006920679999999999,1746802499777564
0.206908,0.1794,9.28395,-0.023956199999999997,-0.005456689999999999,-0.00785231,1746802519753704
0.199732,0.17641,9.295312000000001,-0.024355469999999997,-0.005589779999999999,-0.008783939999999999,1746802539729884
0.20391800000000002,0.189566,9.315644,-0.024355469999999997,-0.005456689999999999,-0.008118489999999999,1746802559706084
0.186576,0.180596,9.312654,-0.024222379999999998,-0.00505742,-0.00971557,1746802579682064
0.193752,0.181792,9.255246,-0.02448856,-0.00465815,-0.00825158,1746802599658164
0.202722,0.18239,9.301292,-0.024355469999999997,-0.004924329999999999,-0.008384669999999999,1746802619634244
0.196144,0.187772,9.326408,-0.024355469999999997,-0.00519051,-0.008118489999999999,1746802639610344
0.208702,0.181194,9.294714,-0.02502092,-0.005989049999999999,-0.00785231,1746802659586484
0.214682,0.182988,9.29591,-0.024754739999999997,-0.006521409999999999,-0.00785231,1746802679562664
0.197938,0.177606,9.315644,-0.023556929999999997,-0.0058559599999999995,-0.0079854,1746802699538644
0.195546,0.177606,9.309664,-0.024222379999999998,-0.0053235999999999995,-0.00785231,1746802719514684
0.192556,0.175812,9.308468,-0.023956199999999997,-0.0053235999999999995,-0.00785231,1746802739490624
0.209898,0.191958,9.299498,-0.023556929999999997,-0.00505742,-0.00678759,1746802759466704
0.205712,0.18239,9.285744,-0.023556929999999997,-0.00505742,-0.0073199499999999995,1746801780442824
0.192556,0.174018,9.27498,-0.023956199999999997,-0.0053235999999999995,-0.008118489999999999,1746801800418924
0.19136,0.178802,9.29591,-0.023823109999999998,-0.00572287,-0.007719219999999999,1746801820395024
0.21049600000000002,0.172224,9.286342,-0.024222379999999998,-0.004924329999999999,-0.008384669999999999,1746801840371024
0.200928,0.17342,9.302488,-0.024355469999999997,-0.0058559599999999995,-0.008783939999999999,1746801860347144
0.197938,0.186576,9.29591,-0.02448856,-0.00572287,-0.007053769999999999,1746801880323384
0.202722,0.177606,9.30189,-0.024355469999999997,-0.0053235999999999995,-0.007586129999999999,1746801900299504
0.206908,0.185978,9.291126,-0.024355469999999997,-0.00465815,-0.0079854,1746801920275524
0.212888,0.17043,9.313252,-0.024355469999999997,-0.0053235999999999995,-0.008118489999999999,1746801940251724
0.193154,0.177606,9.304282,-0.02408929,-0.00465815,-0.0079854,1746801960227884
0.201526,0.178802,9.284548000000001,-0.02462165,-0.005456689999999999,-0.00785231,1746801980204004
0.192556,0.172224,9.294116,-0.02502092,-0.00572287,-0.008118489999999999,1746802000180064
0.18538,0.168038,9.305478,-0.02502092,-0.0053235999999999995,-0.006521409999999999,1746802020156304
0.193154,0.188968,9.270196,-0.023956199999999997,-0.005989049999999999,-0.007453039999999999,1746802040132564
0.205114,0.179998,9.321026,-0.023157659999999997,-0.0047912399999999996,-0.00825158,1746802060108744
0.202124,0.181194,9.31086,-0.023157659999999997,-0.00519051,-0.006521409999999999,1746802080084944
0.205712,0.178204,9.311458,-0.023823109999999998,-0.0053235999999999995,-0.00678759,1746802100060884
0.200928,0.175214,9.292322,-0.02462165,-0.005456689999999999,-0.0073199499999999995,1746802120036924
0.19734000000000002,0.185978,9.287538,-0.02462165,-0.005589779999999999,-0.009050119999999998,1746802140012924
0.204516,0.181792,9.290528,-0.023024569999999998,-0.005589779999999999,-0.00825158,1746802159989024
0.205712,0.178802,9.299498,-0.023823109999999998,-0.00519051,-0.008384669999999999,1746802179965064
0.18538,0.16744,9.27199,-0.023956199999999997,-0.0053235999999999995,-0.00851776,1746802199941204
0.19136,0.169832,9.291724,-0.024222379999999998,-0.00612214,-0.007453039999999999,1746802219917444
0.20033,0.180596,9.294714,-0.02448856,-0.007053769999999999,-0.007586129999999999,1746802239893584
0.211692,0.178204,9.292322,-0.02408929,-0.004924329999999999,-0.008384669999999999,1746802259869624
0.204516,0.184782,9.289332,-0.023556929999999997,-0.005989049999999999,-0.00825158,1746802279845784
0.199134,0.178802,9.29292,-0.024887829999999996,-0.005589779999999999,-0.00678759,1746802299821904
0.194948,0.179998,9.316242,-0.024222379999999998,-0.00425888,-0.00678759,1746802319798044
0.20033,0.181792,9.31086,-0.02462165,-0.0053235999999999995,-0.00825158,1746802339774184
0.214682,0.171626,9.297704,-0.02502092,-0.006521409999999999,-0.00785231,1746802359750284
0.20033,0.184782,9.316242,-0.02369002,-0.00625523,-0.007719219999999999,1746802379726564
0.197938,0.18538,9.281558,-0.023423839999999998,-0.004924329999999999,-0.007719219999999999,1746802399702724
0.19734000000000002,0.174018,9.320428,-0.023956199999999997,-0.0047912399999999996,-0.007453039999999999,1746802419678884
0.206908,0.181194,9.287538,-0.02408929,-0.005456689999999999,-0.00785231,1746802439654984
0.205114,0.183586,9.323418,-0.023823109999999998,-0.0053235999999999995,-0.00718686,1746802459631224
0.198536,0.177008,9.294116,-0.024355469999999997,-0.00572287,-0.007453039999999999,1746802479607304
0.19435,0.192556,9.30787,-0.023823109999999998,-0.004924329999999999,-0.00825158,1746802499583484
0.196742,0.201526,9.308468,-0.02369002,-0.0038596099999999994,-0.00825158,1746802519559544
0.202124,0.193154,9.309664,-0.024222379999999998,-0.00519051,-0.007586129999999999,1746802539535644
0.202124,0.186576,9.291724,-0.023157659999999997,-0.005589779999999999,-0.007453039999999999,1746802559511824
0.186576,0.183586,9.31385,-0.024355469999999997,-0.005456689999999999,-0.007719219999999999,1746802579487744
0.19734000000000002,0.169832,9.311458,-0.02448856,-0.004525059999999999,-0.00825158,1746802599463864
0.197938,0.190164,9.300694,-0.02369002,-0.005456689999999999,-0.007586129999999999,1746802619440004
0.20332,0.182988,9.295312000000001,-0.02289148,-0.005456689999999999,-0.007719219999999999,1746802639416184
0.201526,0.18837,9.291724,-0.02408929,-0.0053235999999999995,-0.0079854,1746802659392184
0.195546,0.17342,9.297106,-0.023956199999999997,-0.00505742,-0.00718686,1746802679368224
0.19136,0.16445,9.314448,-0.02462165,-0.00625523,-0.008118489999999999,1746802699344244
0.213486,0.196144,9.2989,-0.024355469999999997,-0.00678759,-0.007586129999999999,1746802719320444
0.211692,0.179998,9.30787,-0.023823109999999998,-0.005589779999999999,-0.00865085,1746802739296684
0.198536,0.181194,9.298302,-0.02329075,-0.005589779999999999,-0.008118489999999999,1746802759272904
0.21229,0.178802,9.286342,-0.022625299999999997,-0.0058559599999999995,-0.009050119999999998,1746801780249064
0.211094,0.17043,9.295312000000001,-0.023956199999999997,-0.0053235999999999995,-0.00851776,1746801800225284
0.192556,0.172822,9.29292,-0.023556929999999997,-0.004525059999999999,-0.007719219999999999,1746801820201444
0.20631,0.181194,9.316840000000001,-0.02329075,-0.00519051,-0.00825158,1746801840177604
0.199732,0.177606,9.293518,-0.023956199999999997,-0.0053235999999999995,-0.007453039999999999,1746801860153664
0.205712,0.190164,9.298302,-0.023423839999999998,-0.0038596099999999994,-0.00825158,1746801880129904
0.18837,0.174616,9.2989,-0.024222379999999998,-0.00519051,-0.008118489999999999,1746801900106224
0.20391800000000002,0.175812,9.279166,-0.02462165,-0.005989049999999999,-0.007586129999999999,1746801920082344
0.198536,0.187772,9.307272,-0.024222379999999998,-0.005989049999999999,-0.00785231,1746801940058504
0.21229,0.192556,9.279764,-0.023556929999999997,-0.0053235999999999995,-0.0079854,1746801960034704
0.220064,0.187174,9.306674,-0.02448856,-0.00505742,-0.008118489999999999,1746801980010844
0.194948,0.181194,9.301292,-0.023423839999999998,-0.0047912399999999996,-0.00785231,1746801999987144
0.202124,0.177606,9.299498,-0.024355469999999997,-0.004924329999999999,-0.007719219999999999,1746802019963304
0.18418400000000001,0.18239,9.289332,-0.023556929999999997,-0.005456689999999999,-0.008118489999999999,1746802039939444
0.194948,0.177008,9.303684,-0.02448856,-0.005456689999999999,-0.007719219999999999,1746802059915544
0.193752,0.185978,9.310262,-0.024222379999999998,-0.004924329999999999,-0.008118489999999999,1746802079891644
0.20332,0.19734000000000002,9.300694,-0.02369002,-0.00505742,-0.00825158,1746802099867784
0.202124,0.168636,9.27498,-0.023556929999999997,-0.00465815,-0.007719219999999999,1746802119844104
0.202124,0.178204,9.283352,-0.022359119999999996,-0.0047912399999999996,-0.0073199499999999995,1746802139820164
0.198536,0.18239,9.291724,-0.023823109999999998,-0.0058559599999999995,-0.0079854,1746802159796244
0.198536,0.18837,9.285146,-0.023956199999999997,-0.00612214,-0.007453039999999999,1746802179772364
0.190164,0.172224,9.285744,-0.02408929,-0.0058559599999999995,-0.00825158,1746802199748404
0.193752,0.179998,9.30787,-0.024222379999999998,-0.00572287,-0.00865085,1746802219724604
0.202124,0.175214,9.28694,-0.02502092,-0.0047912399999999996,-0.008384669999999999,1746802239700804
0.202722,0.181194,9.293518,-0.024222379999999998,-0.004924329999999999,-0.007586129999999999,1746802259676964
0.201526,0.174018,9.301292,-0.024355469999999997,-0.004924329999999999,-0.007053769999999999,1746802279653124
0.190164,0.171028,9.304282,-0.02448856,-0.005589779999999999,-0.00785231,1746802299629284
0.202124,0.181194,9.304282,-0.024355469999999997,-0.0058559599999999995,-0.008783939999999999,1746802319605324
0.20391800000000002,0.181194,9.279166,-0.023556929999999997,-0.005456689999999999,-0.008384669999999999,1746802339581524
0.18837,0.172224,9.324016,-0.02329075,-0.00519051,-0.00785231,1746802359557664
0.19435,0.19136,9.293518,-0.023423839999999998,-0.00412579,-0.008118489999999999,1746802379533764
0.199134,0.183586,9.298302,-0.02462165,-0.005456689999999999,-0.009050119999999998,1746802399509904
0.193154,0.187174,9.305478,-0.024754739999999997,-0.00505742,-0.00851776,1746802419486064
0.199134,0.166244,9.285146,-0.024887829999999996,-0.005456689999999999,-0.009050119999999998,1746802439462084
0.193154,0.194948,9.333584,-0.023823109999999998,-0.004391969999999999,-0.009050119999999998,1746802459438224
0.198536,0.188968,9.305478,-0.024222379999999998,-0.00505742,-0.00865085,1746802479414264
0.205712,0.191958,9.31983,-0.023556929999999997,-0.005589779999999999,-0.008118489999999999,1746802499390424
0.199134,0.190164,9.306076000000001,-0.02408929,-0.00612214,-0.007719219999999999,1746802519366484
0.194948,0.19435,9.312056,-0.023956199999999997,-0.005589779999999999,-0.00865085,1746802539342524
0.191958,0.191958,9.305478,-0.02369002,-0.00465815,-0.0079854,1746802559318484
0.196742,0.18239,9.305478,-0.023024569999999998,-0.00425888,-0.0073199499999999995,1746802579294504
0.199134,0.171626,9.29591,-0.023956199999999997,-0.0058559599999999995,-0.00785231,1746802599270584
0.2093,0.18538,9.280362,-0.024887829999999996,-0.005989049999999999,-0.008118489999999999,1746802619246764
0.202722,0.18538,9.301292,-0.024222379999999998,-0.005456689999999999,-0.007453039999999999,1746802639222804
0.213486,0.1794,9.301292,-0.023823109999999998,-0.004924329999999999,-0.00785231,1746802659198824
0.19435,0.18538,9.31086,-0.024355469999999997,-0.005456689999999999,-0.007586129999999999,1746802679174744
0.20332,0.206908,9.299498,-0.02542019,-0.004924329999999999,-0.007719219999999999,1746802699150804
0.220064,0.181194,9.305478,-0.02329075,-0.0047912399999999996,-0.00785231,1746802719126904
0.214084,0.18239,9.28395,-0.023556929999999997,-0.00505742,-0.007453039999999999,1746802739103064
0.205712,0.1794,9.277372,-0.024355469999999997,-0.00505742,-0.00865085,1746802759079084
0.214084,0.192556,9.28395,-0.024222379999999998,-0.00465815,-0.008384669999999999,1746801780055044
0.193752,0.190164,9.285146,-0.023956199999999997,-0.00612214,-0.00851776,1746801800031004
0.20631,0.185978,9.297106,-0.024754739999999997,-0.005589779999999999,-0.00865085,1746801820007044
0.199134,0.162656,9.310262,-0.023556929999999997,-0.00625523,-0.006521409999999999,1746801839983244
0.201526,0.17641,9.29292,-0.02408929,-0.0058559599999999995,-0.007053769999999999,1746801859959284
0.20332,0.174616,9.300694,-0.02408929,-0.00519051,-0.0079854,1746801879935284
0.189566,0.169832,9.29591,-0.02448856,-0.005589779999999999,-0.008118489999999999,1746801899911264
0.20332,0.18837,9.280362,-0.02448856,-0.005456689999999999,-0.006920679999999999,1746801919887224
0.209898,0.177606,9.294116,-0.023556929999999997,-0.00505742,-0.0073199499999999995,1746801939863244
0.202124,0.169234,9.285744,-0.02448856,-0.0047912399999999996,-0.00825158,1746801959839424
0.201526,0.184782,9.288136,-0.02448856,-0.0058559599999999995,-0.009050119999999998,1746801979815504
0.199732,0.181194,9.300096,-0.02448856,-0.00519051,-0.00851776,1746801999791364
0.209898,0.177606,9.301292,-0.02448856,-0.004525059999999999,-0.00785231,1746802019767384
0.194948,0.166244,9.292322,-0.023823109999999998,-0.00572287,-0.0073199499999999995,1746802039743424
0.19734000000000002,0.172822,9.293518,-0.025686369999999997,-0.00625523,-0.00718686,1746802059719524
0.197938,0.175812,9.28395,-0.025154009999999997,-0.005589779999999999,-0.007053769999999999,1746802079695644
0.209898,0.166842,9.295312000000001,-0.024355469999999997,-0.005989049999999999,-0.00851776,1746802099671584
0.199134,0.182988,9.307272,-0.023956199999999997,-0.00572287,-0.008384669999999999,1746802119647824
0.198536,0.193154,9.298302,-0.023956199999999997,-0.00572287,-0.008783939999999999,1746802139623964
0.202124,0.182988,9.29591,-0.02369002,-0.0058559599999999995,-0.00865085,1746802159600084
0.208104,0.16445,9.27199,-0.023823109999999998,-0.0053235999999999995,-0.00785231,1746802179576244
0.208104,0.177008,9.309664,-0.023556929999999997,-0.0047912399999999996,-0.007053769999999999,1746802199552444
0.192556,0.182988,9.300096,-0.02329075,-0.0047912399999999996,-0.008118489999999999,1746802219528604
0.20391800000000002,0.17641,9.296508,-0.024355469999999997,-0.004924329999999999,-0.008783939999999999,1746802239504764
0.199134,0.174018,9.308468,-0.024222379999999998,-0.00519051,-0.008783939999999999,1746802259480884
0.213486,0.187174,9.327604000000001,-0.024355469999999997,-0.004924329999999999,-0.0079854,1746802279456964
0.19734000000000002,0.172224,9.310262,-0.023823109999999998,-0.00359343,-0.00785231,1746802299433104
0.193752,0.175812,9.261226,-0.024222379999999998,-0.004391969999999999,-0.00825158,1746802319409384
0.192556,0.18239,9.296508,-0.024754739999999997,-0.004391969999999999,-0.00865085,1746802339385524
0.19435,0.1794,9.276176,-0.025154009999999997,-0.005589779999999999,-0.008384669999999999,1746802359361624
0.208702,0.174018,9.293518,-0.023556929999999997,-0.00572287,-0.007586129999999999,1746802379337604
0.204516,0.181194,9.316840000000001,-0.02408929,-0.005456689999999999,-0.008384669999999999,1746802399313724
0.207506,0.177008,9.305478,-0.023956199999999997,-0.0047912399999999996,-0.008783939999999999,1746802419290024
0.216476,0.181194,9.282156,-0.02329075,-0.005989049999999999,-0.00785231,1746802439266304
0.205712,0.183586,9.279764,-0.02462165,-0.0058559599999999995,-0.00785231,1746802459242444
0.2093,0.16744,9.30488,-0.024754739999999997,-0.00425888,-0.007453039999999999,1746802479218524
0.199134,0.185978,9.287538,-0.024222379999999998,-0.00572287,-0.00825158,1746802499194664
0.199134,0.184782,9.253452,-0.023823109999999998,-0.006521409999999999,-0.008783939999999999,1746802519170724
0.193752,0.179998,9.294116,-0.02448856,-0.00519051,-0.0073199499999999995,1746802539146824
0.201526,0.177606,9.285744,-0.024887829999999996,-0.00519051,-0.007453039999999999,1746802559123044
0.193154,0.175214,9.326408,-0.024222379999999998,-0.00572287,-0.00865085,1746802579099124
0.192556,0.184782,9.306076000000001,-0.02369002,-0.005456689999999999,-0.00785231,1746802599075164
0.187772,0.178802,9.294116,-0.02369002,-0.00519051,-0.006920679999999999,1746802619051224
0.208702,0.177008,9.28096,-0.023556929999999997,-0.0058559599999999995,-0.008118489999999999,1746802639027404
0.197938,0.183586,9.286342,-0.02448856,-0.00505742,-0.007586129999999999,1746802659003564
0.19734000000000002,0.178204,9.288136,-0.024222379999999998,-0.00505742,-0.007053769999999999,1746802678979644
0.187772,0.18837,9.290528,-0.024222379999999998,-0.00519051,-0.00718686,1746802698955744
0.20332,0.192556,9.304282,-0.02329075,-0.00519051,-0.006521409999999999,1746802718931824
0.20332,0.177606,9.29292,-0.02289148,-0.004525059999999999,-0.00825158,1746802738907984
0.193752,0.177008,9.306674,-0.023956199999999997,-0.0053235999999999995,-0.0073199499999999995,1746802758883964
0.208104,0.186576,9.306674,-0.02448856,-0.00572287,-0.009183209999999999,1746801779859944
0.208702,0.172224,9.29292,-0.024355469999999997,-0.0053235999999999995,-0.00825158,1746801799835944
0.20391800000000002,0.166842,9.32282,-0.02408929,-0.004924329999999999,-0.006920679999999999,1746801819811944
0.19734000000000002,0.175812,9.324614,-0.023823109999999998,-0.006654499999999999,-0.006654499999999999,1746801839787984
0.20631,0.180596,9.298302,-0.024222379999999998,-0.00519051,-0.0079854,1746801859763964
0.197938,0.175812,9.28096,-0.02408929,-0.00519051,-0.008118489999999999,1746801879739884
0.20332,0.174616,9.273784000000001,-0.02408929,-0.0053235999999999995,-0.009050119999999998,1746801899715844
0.205114,0.169234,9.27797,-0.023423839999999998,-0.005456689999999999,-0.00785231,1746801919691904
0.209898,0.172224,9.297704,-0.02369002,-0.00519051,-0.00865085,1746801939667964
0.193752,0.178204,9.278568,-0.024754739999999997,-0.005589779999999999,-0.00825158,1746801959644004
0.196742,0.18538,9.300096,-0.023823109999999998,-0.005589779999999999,-0.007453039999999999,1746801979620104
0.204516,0.182988,9.298302,-0.023956199999999997,-0.00572287,-0.00851776,1746801999596164
0.204516,0.179998,9.307272,-0.024355469999999997,-0.005589779999999999,-0.00865085,1746802019572244
0.204516,0.17342,9.301292,-0.024355469999999997,-0.00572287,-0.008384669999999999,1746802039548284
0.200928,0.166244,9.32282,-0.023823109999999998,-0.005456689999999999,-0.0073199499999999995,1746802059524284
0.216476,0.174616,9.311458,-0.02369002,-0.00519051,-0.0079854,1746802079500364
0.21049600000000002,0.18538,9.322222,-0.023157659999999997,-0.005456689999999999,-0.008118489999999999,1746802099476544
0.21049600000000002,0.182988,9.31385,-0.023556929999999997,-0.00505742,-0.0073199499999999995,1746802119452604
0.192556,0.193154,9.293518,-0.023556929999999997,-0.00572287,-0.00825158,1746802139428704
0.204516,0.179998,9.30488,-0.023556929999999997,-0.0047912399999999996,-0.0073199499999999995,1746802159404864
0.199134,0.18538,9.303684,-0.02448856,-0.00465815,-0.0079854,1746802179380904
0.212888,0.178802,9.309664,-0.02408929,-0.005456689999999999,-0.00825158,1746802199356924
0.199732,0.189566,9.297704,-0.024887829999999996,-0.005589779999999999,-0.00825158,1746802219333084
0.201526,0.18418400000000001,9.290528,-0.024887829999999996,-0.005989049999999999,-0.009183209999999999,1746802239309284
0.206908,0.169234,9.297704,-0.024355469999999997,-0.005589779999999999,-0.00785231,1746802259285364
0.205712,0.187174,9.292322,-0.023423839999999998,-0.00505742,-0.0073199499999999995,1746802279261504
0.20033,0.198536,9.299498,-0.023157659999999997,-0.0047912399999999996,-0.007453039999999999,1746802299237564
0.196742,0.178204,9.30488,-0.023956199999999997,-0.004924329999999999,-0.006920679999999999,1746802319213604
0.202722,0.177008,9.28993,-0.02502092,-0.004391969999999999,-0.007586129999999999,1746802339189684
0.205712,0.18837,9.300694,-0.02448856,-0.00519051,-0.00891703,1746802359165804
0.21229,0.178802,9.278568,-0.023556929999999997,-0.00465815,-0.008118489999999999,1746802379141864
0.220064,0.19136,9.300694,-0.023823109999999998,-0.00519051,-0.00825158,1746802399117964
0.195546,0.180596,9.288734,-0.023823109999999998,-0.0058559599999999995,-0.008118489999999999,1746802419094004
0.20631,0.178204,9.292322,-0.02408929,-0.0053235999999999995,-0.00718686,1746802439070084
0.19734000000000002,0.17641,9.29591,-0.024355469999999997,-0.004924329999999999,-0.007719219999999999,1746802459046184
0.199732,0.189566,9.29292,-0.023157659999999997,-0.005989049999999999,-0.007719219999999999,1746802479022244
0.197938,0.1794,9.29591,-0.02369002,-0.0058559599999999995,-0.007586129999999999,1746802498998384
0.211692,0.177008,9.315046,-0.023823109999999998,-0.00519051,-0.00785231,1746802518974604
0.212888,0.177008,9.282156,-0.02448856,-0.0053235999999999995,-0.00851776,1746802538950784
0.220662,0.1794,9.29591,-0.024754739999999997,-0.0058559599999999995,-0.00825158,1746802558926864
0.21049600000000002,0.181792,9.271392,-0.024355469999999997,-0.004924329999999999,-0.0079854,1746802578902884
0.21528,0.18538,9.275578,-0.02462165,-0.005989049999999999,-0.00865085,1746802598878904
0.202124,0.172822,9.294714,-0.024222379999999998,-0.0058559599999999995,-0.00825158,1746802618854944
0.19435,0.17342,9.278568,-0.023823109999999998,-0.00612214,-0.007719219999999999,1746802638831084
0.201526,0.171626,9.278568,-0.024355469999999997,-0.005589779999999999,-0.0073199499999999995,1746802658807164
0.201526,0.188968,9.2989,-0.024222379999999998,-0.005456689999999999,-0.00865085,1746802678783224
0.211692,0.172822,9.321624,-0.023956199999999997,-0.0053235999999999995,-0.00851776,1746802698759304
0.214682,0.171028,9.27498,-0.023423839999999998,-0.0053235999999999995,-0.00851776,1746802718735244
0.202124,0.175812,9.316840000000001,-0.023024569999999998,-0.0047912399999999996,-0.0079854,1746802738711204
0.196144,0.175812,9.296508,-0.02462165,-0.0053235999999999995,-0.0079854,1746802758687244
0.199134,0.172822,9.313252,-0.023423839999999998,-0.005456689999999999,-0.0073199499999999995,1746801779663344
0.195546,0.1794,9.292322,-0.02369002,-0.005589779999999999,-0.00785231,1746801799639364
0.194948,0.19136,9.297106,-0.023157659999999997,-0.005589779999999999,-0.00851776,1746801819615524
0.182988,0.178802,9.293518,-0.022758389999999996,-0.0047912399999999996,-0.00825158,1746801839591684
0.196742,0.18418400000000001,9.304282,-0.023823109999999998,-0.005989049999999999,-0.0073199499999999995,1746801859567644
0.187772,0.18239,9.290528,-0.02408929,-0.004924329999999999,-0.007453039999999999,1746801879543704
0.204516,0.172224,9.292322,-0.02408929,-0.005456689999999999,-0.00825158,1746801899519744
0.19136,0.183586,9.30488,-0.024222379999999998,-0.00519051,-0.007719219999999999,1746801919495784
0.201526,0.17641,9.306674,-0.024222379999999998,-0.005456689999999999,-0.008118489999999999,1746801939471804
0.194948,0.185978,9.30488,-0.024355469999999997,-0.004924329999999999,-0.00825158,1746801959447944
0.194948,0.178802,9.297704,-0.023823109999999998,-0.005989049999999999,-0.007053769999999999,1746801979424024
0.199134,0.17641,9.276176,-0.02408929,-0.00505742,-0.0073199499999999995,1746801999400104
0.205114,0.192556,9.283352,-0.023956199999999997,-0.00505742,-0.0079854,1746802019376204
0.209898,0.178204,9.28694,-0.023956199999999997,-0.004924329999999999,-0.007719219999999999,1746802039352284
0.199134,0.178802,9.303684,-0.02502092,-0.004391969999999999,-0.00825158,1746802059328524
0.196144,0.184782,9.315046,-0.024887829999999996,-0.0047912399999999996,-0.00825158,1746802079304564
0.196144,0.18538,9.292322,-0.02448856,-0.005589779999999999,-0.007719219999999999,1746802099280704
0.185978,0.169832,9.30488,-0.024222379999999998,-0.005589779999999999,-0.0079854,1746802119256904
0.183586,0.180596,9.321026,-0.023956199999999997,-0.005456689999999999,-0.008384669999999999,1746802139233044
0.20391800000000002,0.172822,9.296508,-0.023823109999999998,-0.0053235999999999995,-0.00865085,1746802159209084
0.202124,0.19136,9.306076000000001,-0.024754739999999997,-0.0058559599999999995,-0.007719219999999999,1746802179185164
0.20391800000000002,0.189566,9.264216,-0.025154009999999997,-0.00465815,-0.00891703,1746802199161244
0.20332,0.182988,9.294116,-0.023423839999999998,-0.00505742,-0.006388319999999999,1746802219137344
0.19734000000000002,0.172822,9.29591,-0.023556929999999997,-0.0053235999999999995,-0.007453039999999999,1746802239113464
0.191958,0.169234,9.307272,-0.025686369999999997,-0.0053235999999999995,-0.00678759,1746802259089544
0.197938,0.187772,9.290528,-0.02408929,-0.005456689999999999,-0.007453039999999999,1746802279065684
0.20033,0.181792,9.292322,-0.023956199999999997,-0.005456689999999999,-0.00785231,1746802299041764
0.202124,0.172224,9.30787,-0.02408929,-0.00412579,-0.007719219999999999,1746802319017864
0.20631,0.171626,9.305478,-0.02462165,-0.0053235999999999995,-0.00785231,1746802338994044
0.20391800000000002,0.18239,9.285146,-0.024887829999999996,-0.00612214,-0.0073199499999999995,1746802358970204
0.19435,0.1794,9.288136,-0.024222379999999998,-0.0053235999999999995,-0.007453039999999999,1746802378946384
0.200928,0.178802,9.29591,-0.023956199999999997,-0.0058559599999999995,-0.007053769999999999,1746802398923024
0.199732,0.172822,9.277372,-0.023823109999999998,-0.00505742,-0.00825158,1746802418899264
0.198536,0.18239,9.291126,-0.024222379999999998,-0.00572287,-0.007453039999999999,1746802438875384
0.202124,0.18418400000000001,9.286342,-0.02369002,-0.006521409999999999,-0.00785231,1746802458851684
0.202124,0.166244,9.280362,-0.02369002,-0.00519051,-0.007453039999999999,1746802478827764
0.21049600000000002,0.18837,9.30488,-0.02408929,-0.00505742,-0.00785231,1746802498803984
0.201526,0.163254,9.294714,-0.024887829999999996,-0.005456689999999999,-0.00785231,1746802518780084
0.18538,0.172822,9.30488,-0.024754739999999997,-0.00625523,-0.007453039999999999,1746802538756304
0.201526,0.157274,9.288136,-0.024355469999999997,-0.0058559599999999995,-0.007053769999999999,1746802558732484
0.197938,0.172224,9.297704,-0.02369002,-0.004924329999999999,-0.00718686,1746802578708724
0.205712,0.178802,9.303684,-0.023556929999999997,-0.004525059999999999,-0.00825158,1746802598684884
0.187174,0.172224,9.292322,-0.024355469999999997,-0.0039927,-0.00865085,1746802618660924
0.207506,0.168636,9.300096,-0.02462165,-0.00465815,-0.007453039999999999,1746802638637084
0.19435,0.169832,9.270794,-0.023823109999999998,-0.004525059999999999,-0.006920679999999999,1746802658613244
0.208104,0.163254,9.285146,-0.02462165,-0.00465815,-0.00825158,1746802678589364
0.205114,0.169832,9.309664,-0.025553279999999998,-0.005989049999999999,-0.006920679999999999,1746802698565424
0.195546,0.178204,9.306076000000001,-0.02408929,-0.005989049999999999,-0.007453039999999999,1746802718541584
0.207506,0.174018,9.294116,-0.02448856,-0.005589779999999999,-0.007453039999999999,1746802738517684
0.202124,0.184782,9.31086,-0.024222379999999998,-0.00519051,-0.009183209999999999,1746802758493924
0.209898,0.181792,9.289332,-0.024222379999999998,-0.005456689999999999,-0.0093163,1746801779470044
0.189566,0.198536,9.299498,-0.023956199999999997,-0.004924329999999999,-0.008384669999999999,1746801799446184
0.192556,0.181792,9.301292,-0.023956199999999997,-0.005589779999999999,-0.00825158,1746801819422344
0.200928,0.174616,9.291126,-0.024222379999999998,-0.005456689999999999,-0.006920679999999999,1746801839398484
0.20033,0.18538,9.268402,-0.02408929,-0.00465815,-0.006654499999999999,1746801859374644
0.198536,0.187772,9.28993,-0.023956199999999997,-0.004525059999999999,-0.007586129999999999,1746801879350784
0.214682,0.189566,9.287538,-0.023823109999999998,-0.0038596099999999994,-0.00825158,1746801899327004
0.187772,0.184782,9.297704,-0.024222379999999998,-0.004525059999999999,-0.00851776,1746801919303064
0.207506,0.185978,9.311458,-0.02448856,-0.005456689999999999,-0.008384669999999999,1746801939279204
0.202722,0.189566,9.30189,-0.023423839999999998,-0.0047912399999999996,-0.0079854,1746801959255364
0.206908,0.179998,9.301292,-0.023423839999999998,-0.005989049999999999,-0.008118489999999999,1746801979231364
0.21229,0.171626,9.270196,-0.025154009999999997,-0.00572287,-0.007719219999999999,1746801999207484
0.213486,0.177606,9.30488,-0.024222379999999998,-0.005456689999999999,-0.007719219999999999,1746802019183564
0.197938,0.181792,9.284548000000001,-0.02329075,-0.00465815,-0.00718686,1746802039159244
0.19076200000000001,0.186576,9.299498,-0.02369002,-0.00505742,-0.007053769999999999,1746802059135144
0.206908,0.168038,9.28694,-0.023423839999999998,-0.00505742,-0.007453039999999999,1746802079111184
0.199732,0.178204,9.307272,-0.02448856,-0.005456689999999999,-0.008118489999999999,1746802099087104
0.198536,0.18538,9.299498,-0.024222379999999998,-0.00505742,-0.00865085,1746802119063184
0.189566,0.179998,9.292322,-0.02462165,-0.004924329999999999,-0.007719219999999999,1746802139039224
0.20033,0.191958,9.299498,-0.024887829999999996,-0.005456689999999999,-0.00785231,1746802159015224
0.20033,0.182988,9.291126,-0.023024569999999998,-0.0053235999999999995,-0.00825158,1746802178991464
0.194948,0.185978,9.292322,-0.02369002,-0.004391969999999999,-0.006920679999999999,1746802198967444
0.206908,0.179998,9.297704,-0.024222379999999998,-0.0047912399999999996,-0.007053769999999999,1746802218943384
0.221858,0.166244,9.27797,-0.02408929,-0.00519051,-0.007719219999999999,1746802238920284
0.201526,0.181194,9.302488,-0.02408929,-0.0058559599999999995,-0.007453039999999999,1746802258896424
0.208104,0.182988,9.265412,-0.024222379999999998,-0.00505742,-0.007586129999999999,1746802278872544
0.208104,0.183586,9.263618,-0.024222379999999998,-0.00572287,-0.007719219999999999,1746802298848604
0.211094,0.16744,9.285744,-0.023556929999999997,-0.0047912399999999996,-0.008384669999999999,1746802318824624
0.199732,0.178204,9.279166,-0.02408929,-0.00519051,-0.007586129999999999,1746802338800624
0.202124,0.172224,9.308468,-0.024222379999999998,-0.00625523,-0.0079854,1746802358776764
0.200928,0.1794,9.29591,-0.02408929,-0.005989049999999999,-0.009050119999999998,1746802378752944
0.21827,0.179998,9.303684,-0.025154009999999997,-0.00678759,-0.008384669999999999,1746802398728804
0.207506,0.172822,9.309664,-0.023556929999999997,-0.00572287,-0.007453039999999999,1746802418704804
0.205712,0.182988,9.321624,-0.02462165,-0.004924329999999999,-0.00825158,1746802438680904
0.19435,0.188968,9.30787,-0.025154009999999997,-0.005589779999999999,-0.00891703,1746802458656944
0.20332,0.183586,9.30488,-0.024754739999999997,-0.00505742,-0.00785231,1746802478633084
0.207506,0.186576,9.306076000000001,-0.024355469999999997,-0.0058559599999999995,-0.008384669999999999,1746802498609104
0.20033,0.181194,9.300096,-0.023956199999999997,-0.005456689999999999,-0.00718686,1746802518585184
0.207506,0.18837,9.277372,-0.023823109999999998,-0.004525059999999999,-0.007453039999999999,1746802538561224
0.21229,0.179998,9.305478,-0.02448856,-0.00519051,-0.008384669999999999,1746802558537304
0.19076200000000001,0.17342,9.273784000000001,-0.024754739999999997,-0.0047912399999999996,-0.007053769999999999,1746802578513304
0.198536,0.179998,9.273784000000001,-0.023823109999999998,-0.00505742,-0.007453039999999999,1746802598489344
0.199732,0.177008,9.279166,-0.02408929,-0.005456689999999999,-0.00785231,1746802618465404
0.208702,0.172224,9.29591,-0.02408929,-0.004924329999999999,-0.00851776,1746802638441484
0.201526,0.189566,9.294714,-0.023024569999999998,-0.00572287,-0.0093163,1746802658417544
0.201526,0.174616,9.30189,-0.023823109999999998,-0.00572287,-0.008118489999999999,1746802678393524
0.205712,0.160862,9.316840000000001,-0.024355469999999997,-0.00519051,-0.008118489999999999,1746802698369724
0.216476,0.166842,9.29591,-0.023556929999999997,-0.00519051,-0.00865085,1746802718345884
0.208702,0.18418400000000001,9.288734,-0.024355469999999997,-0.005456689999999999,-0.00851776,1746802738322024
0.19136,0.174616,9.306076000000001,-0.023823109999999998,-0.0058559599999999995,-0.009050119999999998,1746802758298144
0.205712,0.171626,9.312654,-0.023823109999999998,-0.0053235999999999995,-0.008118489999999999,1746801779274184
0.205114,0.186576,9.28694,-0.023423839999999998,-0.0047912399999999996,-0.0079854,1746801799250324
0.202722,0.1794,9.303684,-0.023556929999999997,-0.00505742,-0.00851776,1746801819226264
0.202124,0.183586,9.291724,-0.024222379999999998,-0.00505742,-0.008118489999999999,1746801839202384
0.2093,0.187772,9.297704,-0.023823109999999998,-0.0047912399999999996,-0.008118489999999999,1746801859178484
0.205712,0.169832,9.279764,-0.02502092,-0.00505742,-0.007719219999999999,1746801879153784
0.20631,0.177606,9.305478,-0.024355469999999997,-0.00519051,-0.00825158,1746801899129864
0.2093,0.179998,9.33777,-0.023823109999999998,-0.00519051,-0.0073199499999999995,1746801919105884
0.20033,0.174018,9.295312000000001,-0.02448856,-0.004924329999999999,-0.00678759,1746801939081964
0.208702,0.182988,9.289332,-0.02408929,-0.00612214,-0.00785231,1746801959057984
0.209898,0.178802,9.2989,-0.02369002,-0.006388319999999999,-0.00785231,1746801979034064
0.208702,0.175214,9.316840000000001,-0.023956199999999997,-0.004525059999999999,-0.008384669999999999,1746801999010044
0.193752,0.171626,9.300096,-0.024222379999999998,-0.0047912399999999996,-0.008783939999999999,1746802018986044
0.196742,0.166842,9.295312000000001,-0.024754739999999997,-0.00519051,-0.00891703,1746802038962104
0.211094,0.181194,9.279764,-0.02448856,-0.0053235999999999995,-0.007586129999999999,1746802058938224
0.198536,0.178802,9.298302,-0.023823109999999998,-0.004924329999999999,-0.008118489999999999,1746802078914524
0.199732,0.174616,9.290528,-0.02408929,-0.00505742,-0.007586129999999999,1746802098890524
0.208104,0.163852,9.310262,-0.023423839999999998,-0.0047912399999999996,-0.00785231,1746802118866544
0.205114,0.175812,9.29591,-0.02369002,-0.004525059999999999,-0.008118489999999999,1746802138842684
0.20033,0.16564600000000002,9.282754,-0.02408929,-0.004525059999999999,-0.0079854,1746802158818704
0.200928,0.178204,9.293518,-0.02369002,-0.0053235999999999995,-0.007453039999999999,1746802178794724
0.200928,0.178802,9.279166,-0.023024569999999998,-0.0053235999999999995,-0.0079854,1746802198770844
0.195546,0.183586,9.295312000000001,-0.023956199999999997,-0.005456689999999999,-0.00785231,1746802218747004
0.199732,0.18418400000000001,9.298302,-0.02502092,-0.00505742,-0.008118489999999999,1746802238723004
0.184782,0.191958,9.29591,-0.02462165,-0.005456689999999999,-0.00851776,1746802258699084
0.208104,0.168636,9.29591,-0.024222379999999998,-0.00625523,-0.007586129999999999,1746802278675144
0.206908,0.175214,9.308468,-0.02462165,-0.004924329999999999,-0.00865085,1746802298651244
0.201526,0.153686,9.30488,-0.02408929,-0.0038596099999999994,-0.0079854,1746802318627424
0.196144,0.175214,9.273186,-0.02448856,-0.00465815,-0.00678759,1746802338603404
0.200928,0.184782,9.297704,-0.024222379999999998,-0.004924329999999999,-0.00825158,1746802358579444
0.205114,0.19136,9.275578,-0.02408929,-0.00505742,-0.0073199499999999995,1746802378555484
0.196144,0.172822,9.297704,-0.024222379999999998,-0.00572287,-0.008384669999999999,1746802398531524
0.206908,0.165048,9.287538,-0.02462165,-0.004525059999999999,-0.008118489999999999,1746802418507664
0.194948,0.175812,9.298302,-0.024222379999999998,-0.00519051,-0.00851776,1746802438483664
0.19435,0.19076200000000001,9.309664,-0.023956199999999997,-0.005456689999999999,-0.008384669999999999,1746802458459604
0.202124,0.16744,9.306076000000001,-0.024355469999999997,-0.005456689999999999,-0.008783939999999999,1746802478435704
0.206908,0.17043,9.303684,-0.02369002,-0.0047912399999999996,-0.007719219999999999,1746802498411884
0.205114,0.168038,9.30488,-0.02408929,-0.0047912399999999996,-0.00825158,1746802518387964
0.2093,0.188968,9.287538,-0.024887829999999996,-0.005589779999999999,-0.00825158,1746802538364044
0.206908,0.171626,9.283352,-0.02448856,-0.00505742,-0.00851776,1746802558340084
0.199732,0.178204,9.30787,-0.024754739999999997,-0.004924329999999999,-0.00678759,1746802578316224
0.207506,0.168038,9.31983,-0.024887829999999996,-0.00465815,-0.006521409999999999,1746802598292484
0.21229,0.177606,9.278568,-0.02408929,-0.0047912399999999996,-0.00718686,1746802618268564
0.205114,0.1794,9.28395,-0.025154009999999997,-0.00465815,-0.00785231,1746802638244604
0.194948,0.1794,9.279764,-0.02462165,-0.0037265199999999997,-0.008384669999999999,1746802658220584
0.204516,0.19076200000000001,9.297106,-0.02408929,-0.00465815,-0.00891703,1746802678196604
0.196742,0.178802,9.270794,-0.024222379999999998,-0.004391969999999999,-0.008118489999999999,1746802698172524
0.204516,0.178802,9.305478,-0.023556929999999997,-0.004924329999999999,-0.008118489999999999,1746802718148304
0.205114,0.18418400000000001,9.294714,-0.023556929999999997,-0.006388319999999999,-0.00785231,1746802738124304
0.201526,0.190164,9.301292,-0.02369002,-0.0047912399999999996,-0.008384669999999999,1746802758100244
0.201526,0.183586,9.307272,-0.024222379999999998,-0.004924329999999999,-0.0073199499999999995,1746801779076224
0.19136,0.181194,9.292322,-0.023423839999999998,-0.004525059999999999,-0.0079854,1746801799052404
0.218868,0.16564600000000002,9.294116,-0.02408929,-0.0058559599999999995,-0.00865085,1746801819028344
0.199134,0.171028,9.296508,-0.02408929,-0.00612214,-0.008118489999999999,1746801839004264
0.204516,0.190164,9.318036,-0.023956199999999997,-0.00572287,-0.00865085,1746801858980284
0.194948,0.178204,9.34076,-0.02448856,-0.004391969999999999,-0.00785231,1746801878956484
0.196144,0.17043,9.291724,-0.024355469999999997,-0.00519051,-0.006920679999999999,1746801898932504
0.200928,0.181194,9.300096,-0.024222379999999998,-0.00519051,-0.00678759,1746801918908624
0.2093,0.193154,9.291724,-0.025553279999999998,-0.00519051,-0.00718686,1746801938884564
0.200928,0.174616,9.300096,-0.02408929,-0.004391969999999999,-0.00785231,1746801958860664
0.202124,0.175812,9.309066,-0.023956199999999997,-0.005456689999999999,-0.0079854,1746801978836684
0.207506,0.17641,9.279764,-0.023423839999999998,-0.0047912399999999996,-0.00865085,1746801998812724
0.201526,0.179998,9.30787,-0.024355469999999997,-0.0047912399999999996,-0.007719219999999999,1746802018788904
0.20631,0.177606,9.282754,-0.025154009999999997,-0.004924329999999999,-0.0079854,1746802038764884
0.193154,0.174018,9.304282,-0.024887829999999996,-0.005989049999999999,-0.00825158,1746802058740824
0.190164,0.17641,9.30787,-0.024754739999999997,-0.004525059999999999,-0.0079854,1746802078716944
0.192556,0.184782,9.286342,-0.024887829999999996,-0.00505742,-0.007053769999999999,1746802098693104
0.21528,0.195546,9.305478,-0.02369002,-0.00519051,-0.007453039999999999,1746802118669064
0.196742,0.188968,9.300694,-0.02329075,-0.0058559599999999995,-0.00891703,1746802138645124
0.19076200000000001,0.18538,9.294116,-0.024355469999999997,-0.00505742,-0.007586129999999999,1746802158621204
0.19136,0.17641,9.296508,-0.023823109999999998,-0.0053235999999999995,-0.00851776,1746802178597264
0.214084,0.18538,9.278568,-0.024222379999999998,-0.004924329999999999,-0.00891703,1746802198573224
0.208702,0.187772,9.2989,-0.025287099999999996,-0.0053235999999999995,-0.008118489999999999,1746802218549284
0.206908,0.16445,9.31385,-0.024222379999999998,-0.00572287,-0.008118489999999999,1746802238525124
0.193154,0.191958,9.315644,-0.02369002,-0.005589779999999999,-0.00865085,1746802258501464
0.19076200000000001,0.193752,9.311458,-0.02462165,-0.00519051,-0.008118489999999999,1746802278477524
0.200928,0.181194,9.284548000000001,-0.024754739999999997,-0.0053235999999999995,-0.008118489999999999,1746802298453664
0.202722,0.1794,9.292322,-0.02502092,-0.00425888,-0.00718686,1746802318429824
0.211692,0.175214,9.28395,-0.024754739999999997,-0.00572287,-0.008118489999999999,1746802338406084
0.192556,0.18837,9.291126,-0.02329075,-0.0053235999999999995,-0.00825158,1746802358382104
0.205114,0.180596,9.299498,-0.02329075,-0.00505742,-0.008384669999999999,1746802378358244
0.21049600000000002,0.17641,9.290528,-0.023956199999999997,-0.005589779999999999,-0.008384669999999999,1746802398334324
0.200928,0.181792,9.289332,-0.023956199999999997,-0.005456689999999999,-0.00851776,1746802418310464
0.200928,0.1794,9.315046,-0.02408929,-0.005456689999999999,-0.008384669999999999,1746802438286384
0.201526,0.181194,9.312654,-0.024222379999999998,-0.005456689999999999,-0.00865085,1746802458262444
0.21049600000000002,0.174018,9.296508,-0.024222379999999998,-0.004391969999999999,-0.007719219999999999,1746802478238544
0.19435,0.174018,9.295312000000001,-0.023556929999999997,-0.00505742,-0.0079854,1746802498214584
0.188968,0.16146,9.291724,-0.023556929999999997,-0.00505742,-0.0073199499999999995,1746802518190524
0.205712,0.189566,9.316840000000001,-0.02448856,-0.00572287,-0.007719219999999999,1746802538166524
0.20631,0.16564600000000002,9.298302,-0.02462165,-0.004924329999999999,-0.0073199499999999995,1746802558142504
0.187772,0.18538,9.298302,-0.02408929,-0.004391969999999999,-0.0079854,1746802578118544
0.205712,0.168038,9.296508,-0.024222379999999998,-0.004924329999999999,-0.007719219999999999,1746802598094444
0.211094,0.195546,9.300694,-0.02462165,-0.006388319999999999,-0.008118489999999999,1746802618070584
0.207506,0.174018,9.29591,-0.024754739999999997,-0.00572287,-0.008384669999999999,1746802638046624
0.214682,0.18239,9.305478,-0.02408929,-0.005589779999999999,-0.00891703,1746802658022464
0.208702,0.160264,9.32581,-0.023823109999999998,-0.0058559599999999995,-0.00718686,1746802677998504
0.204516,0.187772,9.297704,-0.024355469999999997,-0.00572287,-0.007719219999999999,1746802697974564
0.191958,0.186576,9.276176,-0.02408929,-0.00412579,-0.008118489999999999,1746802717950484
0.20631,0.181194,9.28395,-0.024222379999999998,-0.0047912399999999996,-0.008118489999999999,1746802737926484
0.196742,0.18837,9.291126,-0.023423839999999998,-0.006388319999999999,-0.00785231,1746802757902644
0.192556,0.182988,9.303086,-0.024222379999999998,-0.00465815,-0.008384669999999999,1746801778878624
0.206908,0.182988,9.31086,-0.024222379999999998,-0.005589779999999999,-0.00891703,1746801798854504
0.20391800000000002,0.178802,9.318634,-0.023823109999999998,-0.00465815,-0.008118489999999999,1746801818830464
0.205712,0.171028,9.293518,-0.023956199999999997,-0.005456689999999999,-0.007453039999999999,1746801838806564
0.20391800000000002,0.182988,9.312654,-0.024222379999999998,-0.00519051,-0.00718686,1746801858782524
0.19076200000000001,0.181792,9.312056,-0.02408929,-0.00425888,-0.007453039999999999,1746801878758644
0.199732,0.182988,9.288136,-0.024222379999999998,-0.005989049999999999,-0.00785231,1746801898734424
0.208702,0.188968,9.285744,-0.023823109999999998,-0.00625523,-0.007453039999999999,1746801918710564
0.208104,0.19435,9.296508,-0.024355469999999997,-0.004924329999999999,-0.0079854,1746801938686564
0.192556,0.185978,9.300096,-0.02448856,-0.0037265199999999997,-0.00891703,1746801958662524
0.194948,0.174616,9.28694,-0.02448856,-0.00572287,-0.00891703,1746801978638444
0.199134,0.172822,9.29591,-0.023823109999999998,-0.005589779999999999,-0.00865085,1746801998614544
0.21049600000000002,0.174616,9.286342,-0.02462165,-0.00505742,-0.00851776,1746802018590604
0.211692,0.17043,9.291126,-0.025154009999999997,-0.0037265199999999997,-0.008384669999999999,1746802038566704
0.202124,0.20332,9.28993,-0.02408929,-0.00505742,-0.008384669999999999,1746802058542644
0.199732,0.166842,9.30189,-0.023956199999999997,-0.00612214,-0.00865085,1746802078518644
0.208104,0.174616,9.2989,-0.02289148,-0.004924329999999999,-0.00865085,1746802098494724
0.197938,0.1794,9.301292,-0.023423839999999998,-0.005456689999999999,-0.007053769999999999,1746802118470784
0.196742,0.199732,9.291724,-0.024222379999999998,-0.00572287,-0.00865085,1746802138446784
0.204516,0.175812,9.295312000000001,-0.024355469999999997,-0.006388319999999999,-0.008118489999999999,1746802158422804
0.202722,0.174018,9.305478,-0.023423839999999998,-0.0047912399999999996,-0.008118489999999999,1746802178398944
0.202124,0.168038,9.316840000000001,-0.023423839999999998,-0.0053235999999999995,-0.008384669999999999,1746802198374964
0.193752,0.172822,9.312056,-0.023823109999999998,-0.005989049999999999,-0.0079854,1746802218350944
0.208702,0.182988,9.27498,-0.024355469999999997,-0.0053235999999999995,-0.0093163,1746802238327004
0.196742,0.185978,9.28694,-0.024222379999999998,-0.005589779999999999,-0.008118489999999999,1746802258302964
0.199134,0.18837,9.307272,-0.02408929,-0.00465815,-0.00718686,1746802278278984
0.205114,0.186576,9.2989,-0.02369002,-0.00505742,-0.007453039999999999,1746802298255004
0.199732,0.166244,9.293518,-0.02462165,-0.006388319999999999,-0.00891703,1746802318231104
0.214084,0.182988,9.28694,-0.02408929,-0.005589779999999999,-0.00785231,1746802338207124
0.20033,0.175214,9.282156,-0.023823109999999998,-0.00465815,-0.00825158,1746802358183124
0.20391800000000002,0.175214,9.303086,-0.02448856,-0.0053235999999999995,-0.008384669999999999,1746802378159124
0.2093,0.172822,9.306076000000001,-0.025154009999999997,-0.00519051,-0.008118489999999999,1746802398135024
0.204516,0.18239,9.29292,-0.02502092,-0.0053235999999999995,-0.00865085,1746802418110944
0.199732,0.163852,9.274382,-0.02502092,-0.004391969999999999,-0.00825158,1746802438087124
0.188968,0.177606,9.290528,-0.02369002,-0.004525059999999999,-0.007719219999999999,1746802458063124
0.18418400000000001,0.174018,9.298302,-0.024222379999999998,-0.00505742,-0.007719219999999999,1746802478039144
0.201526,0.187772,9.301292,-0.023823109999999998,-0.00519051,-0.00785231,1746802498015224
0.2093,0.177008,9.306674,-0.02462165,-0.004525059999999999,-0.00625523,1746802517991224
0.196144,0.187174,9.2989,-0.024887829999999996,-0.00425888,-0.0079854,1746802537967324
0.193154,0.18418400000000001,9.302488,-0.02408929,-0.00612214,-0.00825158,1746802557943224
0.20631,0.171626,9.28096,-0.02462165,-0.00572287,-0.0079854,1746802577919204
0.20332,0.162656,9.297106,-0.023956199999999997,-0.00465815,-0.007719219999999999,1746802597895524
0.2093,0.181194,9.316840000000001,-0.025154009999999997,-0.00572287,-0.007586129999999999,1746802617871704
0.190164,0.197938,9.28694,-0.024222379999999998,-0.00505742,-0.007719219999999999,1746802637847904
0.208104,0.196742,9.297704,-0.024754739999999997,-0.0053235999999999995,-0.00825158,1746802657823984
0.206908,0.182988,9.292322,-0.024887829999999996,-0.0047912399999999996,-0.008783939999999999,1746802677800024
0.201526,0.188968,9.318634,-0.02448856,-0.00465815,-0.008384669999999999,1746802697776144
0.211692,0.191958,9.294116,-0.023823109999999998,-0.00519051,-0.007719219999999999,1746802717752384
0.20332,0.171626,9.300096,-0.02289148,-0.00612214,-0.007586129999999999,1746802737728644
0.199732,0.19136,9.288734,-0.023556929999999997,-0.00625523,-0.007719219999999999,1746802757704704
0.202124,0.186576,9.285146,-0.02462165,-0.005589779999999999,-0.00825158,1746801778680764
0.197938,0.175214,9.299498,-0.02462165,-0.00519051,-0.00851776,1746801798656884
0.202722,0.18538,9.298302,-0.023956199999999997,-0.00505742,-0.008118489999999999,1746801818633224
0.19734000000000002,0.162058,9.28395,-0.024222379999999998,-0.0047912399999999996,-0.007053769999999999,1746801838609324
0.197938,0.17342,9.305478,-0.023823109999999998,-0.005456689999999999,-0.008384669999999999,1746801858585644
0.195546,0.17043,9.309066,-0.024222379999999998,-0.005456689999999999,-0.0079854,1746801878561804
0.189566,0.178204,9.291126,-0.02329075,-0.00505742,-0.007719219999999999,1746801898538024
0.196144,0.16564600000000002,9.304282,-0.024222379999999998,-0.00505742,-0.007586129999999999,1746801918514064
0.20332,0.1794,9.288136,-0.025287099999999996,-0.00519051,-0.00851776,1746801938490284
0.196144,0.177606,9.30787,-0.024887829999999996,-0.0047912399999999996,-0.00785231,1746801958466524
0.195546,0.17641,9.292322,-0.023556929999999997,-0.005456689999999999,-0.0079854,1746801978442704
0.20391800000000002,0.177606,9.305478,-0.02408929,-0.0053235999999999995,-0.00678759,1746801998418784
0.201526,0.187772,9.310262,-0.024754739999999997,-0.00612214,-0.008118489999999999,1746802018394864
0.19734000000000002,0.18538,9.292322,-0.02502092,-0.0058559599999999995,-0.00825158,1746802038371064
0.195546,0.172822,9.296508,-0.025287099999999996,-0.00519051,-0.007719219999999999,1746802058347464
0.209898,0.17342,9.315644,-0.023556929999999997,-0.004924329999999999,-0.00825158,1746802078323484
0.20391800000000002,0.1794,9.327604000000001,-0.023823109999999998,-0.005589779999999999,-0.0093163,1746802098299564
0.196144,0.18418400000000001,9.290528,-0.02448856,-0.00572287,-0.00718686,1746802118275604
0.201526,0.188968,9.288734,-0.023556929999999997,-0.0047912399999999996,-0.0079854,1746802138251604
0.196742,0.172822,9.28694,-0.02408929,-0.00572287,-0.008384669999999999,1746802158228204
0.196144,0.168038,9.300096,-0.02369002,-0.00519051,-0.008118489999999999,1746802178204144
0.202124,0.17043,9.323418,-0.023956199999999997,-0.00612214,-0.007586129999999999,1746802198180304
0.196144,0.178204,9.314448,-0.023556929999999997,-0.006388319999999999,-0.007719219999999999,1746802218156304
0.206908,0.17342,9.275578,-0.023556929999999997,-0.00612214,-0.008118489999999999,1746802238132124
0.190164,0.174018,9.297106,-0.023823109999999998,-0.005989049999999999,-0.00825158,1746802258108164
0.194948,0.18239,9.318634,-0.023956199999999997,-0.004924329999999999,-0.008384669999999999,1746802278084024
0.217074,0.168636,9.321624,-0.02369002,-0.005456689999999999,-0.009183209999999999,1746802298059884
0.214084,0.19076200000000001,9.297704,-0.02369002,-0.0047912399999999996,-0.00825158,1746802318035924
0.199134,0.18239,9.303086,-0.02329075,-0.004924329999999999,-0.00825158,1746802338011884
0.20033,0.185978,9.30488,-0.024355469999999997,-0.004391969999999999,-0.00718686,1746802357987744
0.20033,0.182988,9.300096,-0.024887829999999996,-0.00519051,-0.00785231,1746802377963784
0.200928,0.194948,9.300096,-0.023157659999999997,-0.00519051,-0.008118489999999999,1746802397939744
0.192556,0.18239,9.291126,-0.023556929999999997,-0.004924329999999999,-0.008384669999999999,1746802417915844
0.199732,0.172224,9.31086,-0.02448856,-0.00572287,-0.0079854,1746802437892104
0.199134,0.169234,9.327006,-0.024222379999999998,-0.00572287,-0.00785231,1746802457867984
0.198536,0.16445,9.306076000000001,-0.023956199999999997,-0.0047912399999999996,-0.006654499999999999,1746802477844064
0.195546,0.171626,9.281558,-0.02462165,-0.00519051,-0.007453039999999999,1746802497820004
0.188968,0.177008,9.30488,-0.023823109999999998,-0.00612214,-0.008118489999999999,1746802517796144
0.194948,0.175812,9.298302,-0.02329075,-0.00519051,-0.008783939999999999,1746802537771904
0.208702,0.178802,9.311458,-0.023423839999999998,-0.00505742,-0.00891703,1746802557748004
0.208702,0.188968,9.297106,-0.024887829999999996,-0.00505742,-0.00825158,1746802577723984
0.202124,0.182988,9.28096,-0.024222379999999998,-0.00465815,-0.00785231,1746802597699784
0.207506,0.181194,9.297704,-0.02462165,-0.004391969999999999,-0.007586129999999999,1746802617675724
0.20631,0.19734000000000002,9.312056,-0.023556929999999997,-0.00572287,-0.0079854,1746802637651764
0.19136,0.187772,9.276774,-0.02329075,-0.00519051,-0.00891703,1746802657627884
0.199134,0.168636,9.303086,-0.022625299999999997,-0.00425888,-0.00851776,1746802677603904
0.202722,0.172822,9.291126,-0.02408929,-0.0053235999999999995,-0.008118489999999999,1746802697579564
0.20631,0.175214,9.30189,-0.02448856,-0.0053235999999999995,-0.0079854,1746802717555484
0.197938,0.17043,9.303086,-0.023423839999999998,-0.0047912399999999996,-0.007586129999999999,1746802737531484
0.207506,0.172822,9.291724,-0.02408929,-0.00519051,-0.007453039999999999,1746802757507584
0.20033,0.160862,9.280362,-0.02408929,-0.0053235999999999995,-0.00785231,1746802777483704
0.20631,0.183586,9.288136,-0.023157659999999997,-0.0058559599999999995,-0.00825158,1746801798459244
0.20391800000000002,0.186576,9.280362,-0.02448856,-0.00519051,-0.00718686,1746801818435264
0.201526,0.165048,9.306674,-0.023556929999999997,-0.005589779999999999,-0.0073199499999999995,1746801838411264
0.193154,0.185978,9.298302,-0.02369002,-0.004924329999999999,-0.00785231,1746801858387344
0.209898,0.162058,9.314448,-0.024754739999999997,-0.0053235999999999995,-0.00851776,1746801878363404
0.198536,0.175214,9.295312000000001,-0.02448856,-0.00465815,-0.00851776,1746801898339284
0.202722,0.181792,9.31983,-0.024222379999999998,-0.00505742,-0.008118489999999999,1746801918315284
0.20033,0.19136,9.292322,-0.02369002,-0.0058559599999999995,-0.00865085,1746801938291364
0.211094,0.179998,9.295312000000001,-0.023823109999999998,-0.005456689999999999,-0.0079854,1746801958267344
0.19136,0.177606,9.293518,-0.024355469999999997,-0.00465815,-0.00865085,1746801978243424
0.20391800000000002,0.179998,9.304282,-0.024355469999999997,-0.005456689999999999,-0.0073199499999999995,1746801998219444
0.20631,0.171028,9.282754,-0.02448856,-0.00505742,-0.007719219999999999,1746802018195264
0.2093,0.187772,9.29591,-0.02462165,-0.004924329999999999,-0.00825158,1746802038171344
0.18837,0.178802,9.287538,-0.024355469999999997,-0.00572287,-0.006920679999999999,1746802058147284
0.19435,0.17641,9.30189,-0.02462165,-0.00505742,-0.0073199499999999995,1746802078123024
0.196742,0.177606,9.305478,-0.02502092,-0.0053235999999999995,-0.007719219999999999,1746802098098884
0.189566,0.17342,9.300096,-0.023823109999999998,-0.00465815,-0.008384669999999999,1746802118074764
0.196144,0.175214,9.289332,-0.024222379999999998,-0.005589779999999999,-0.00851776,1746802138050644
0.199732,0.181792,9.300096,-0.024754739999999997,-0.00572287,-0.0079854,1746802158026424
0.187772,0.172822,9.291724,-0.02462165,-0.005589779999999999,-0.007586129999999999,1746802178002524
0.21049600000000002,0.169832,9.283352,-0.023556929999999997,-0.00572287,-0.00825158,1746802197978464
0.208104,0.169234,9.301292,-0.02329075,-0.0053235999999999995,-0.00825158,1746802217954324
0.193154,0.175214,9.281558,-0.02329075,-0.00519051,-0.007586129999999999,1746802237930264
0.196144,0.177008,9.301292,-0.023024569999999998,-0.0047912399999999996,-0.007719219999999999,1746802257906404
0.20391800000000002,0.18418400000000001,9.289332,-0.023956199999999997,-0.0039927,-0.00785231,1746802277882384
0.20332,0.190164,9.310262,-0.02462165,-0.00505742,-0.00825158,1746802297858184
0.196144,0.181792,9.294116,-0.02462165,-0.004391969999999999,-0.00865085,1746802317834044
0.183586,0.172822,9.2989,-0.024355469999999997,-0.00572287,-0.008783939999999999,1746802337810004
0.191958,0.189566,9.28096,-0.02369002,-0.004924329999999999,-0.008118489999999999,1746802357785984
0.192556,0.182988,9.290528,-0.02408929,-0.0053235999999999995,-0.0079854,1746802377761984
0.20391800000000002,0.181194,9.314448,-0.023956199999999997,-0.004924329999999999,-0.0079854,1746802397737884
0.196742,0.174616,9.316242,-0.024355469999999997,-0.00465815,-0.00851776,1746802417713724
0.207506,0.174018,9.297704,-0.023956199999999997,-0.004391969999999999,-0.00825158,1746802437689644
0.19076200000000001,0.181194,9.288136,-0.023423839999999998,-0.004924329999999999,-0.00678759,1746802457665684
0.190164,0.177606,9.292322,-0.02369002,-0.00505742,-0.00678759,1746802477641584
0.200928,0.1794,9.285146,-0.023157659999999997,-0.0058559599999999995,-0.006920679999999999,1746802497617524
0.20332,0.187174,9.290528,-0.024222379999999998,-0.005989049999999999,-0.007586129999999999,1746802517593364
0.20391800000000002,0.177008,9.28395,-0.024754739999999997,-0.0053235999999999995,-0.0079854,1746802537569324
0.204516,0.1794,9.28993,-0.023956199999999997,-0.0053235999999999995,-0.00678759,1746802557545264
0.193752,0.17342,9.278568,-0.023956199999999997,-0.0058559599999999995,-0.007053769999999999,1746802577521264
0.202124,0.19076200000000001,9.303684,-0.024754739999999997,-0.004924329999999999,-0.00678759,1746802597497244
0.199134,0.180596,9.287538,-0.02462165,-0.005589779999999999,-0.007719219999999999,1746802617473164
0.211692,0.168636,9.288136,-0.024754739999999997,-0.005456689999999999,-0.009449389999999998,1746802637449164
0.204516,0.17342,9.28694,-0.024355469999999997,-0.004391969999999999,-0.0093163,1746802657425124
0.21528,0.171626,9.282156,-0.02369002,-0.00465815,-0.00865085,1746802677400984
0.195546,0.178204,9.276774,-0.023956199999999997,-0.005456689999999999,-0.0079854,1746802697376944
0.204516,0.18837,9.269598,-0.024222379999999998,-0.0053235999999999995,-0.007453039999999999,1746802717352904
0.202124,0.169234,9.289332,-0.02448856,-0.00572287,-0.008783939999999999,1746802737328904
0.19435,0.16445,9.2989,-0.023423839999999998,-0.0047912399999999996,-0.00891703,1746802757304884
0.20391800000000002,0.174018,9.30189,-0.023024569999999998,-0.00425888,-0.007719219999999999,1746802777280864
0.20631,0.180596,9.29591,-0.02329075,-0.0047912399999999996,-0.0079854,1746801798256804
0.196742,0.168038,9.302488,-0.02448856,-0.004924329999999999,-0.00785231,1746801818232704
0.189566,0.166244,9.312056,-0.02369002,-0.0053235999999999995,-0.0073199499999999995,1746801838208724
0.199134,0.174018,9.296508,-0.02329075,-0.005589779999999999,-0.007586129999999999,1746801858184764
0.199134,0.174616,9.301292,-0.02448856,-0.0053235999999999995,-0.008118489999999999,1746801878160844
0.192556,0.177008,9.300096,-0.02408929,-0.00572287,-0.007719219999999999,1746801898136724
0.206908,0.178204,9.309664,-0.024222379999999998,-0.0047912399999999996,-0.00825158,1746801918112804
0.202124,0.17641,9.297106,-0.023823109999999998,-0.0053235999999999995,-0.007719219999999999,1746801938088964
0.205712,0.165048,9.278568,-0.023823109999999998,-0.0047912399999999996,-0.00785231,1746801958065044
0.20391800000000002,0.172224,9.288734,-0.023956199999999997,-0.005456689999999999,-0.00891703,1746801978041304
0.197938,0.172822,9.3288,-0.023556929999999997,-0.004525059999999999,-0.007586129999999999,1746801998017364
0.196144,0.190164,9.310262,-0.02369002,-0.00519051,-0.007719219999999999,1746802017993444
0.201526,0.18538,9.320428,-0.024355469999999997,-0.00505742,-0.008384669999999999,1746802037969524
0.197938,0.174616,9.310262,-0.023556929999999997,-0.00519051,-0.006920679999999999,1746802057945564
0.202124,0.174616,9.297704,-0.02329075,-0.004924329999999999,-0.007453039999999999,1746802077921564
0.199732,0.171626,9.303086,-0.02408929,-0.004391969999999999,-0.00785231,1746802097897544
0.20391800000000002,0.183586,9.277372,-0.023956199999999997,-0.00425888,-0.008118489999999999,1746802117873684
0.207506,0.199732,9.305478,-0.02462165,-0.00572287,-0.007586129999999999,1746802137849784
0.195546,0.175214,9.295312000000001,-0.02448856,-0.00572287,-0.00865085,1746802157825984
0.196144,0.1794,9.303684,-0.023956199999999997,-0.005456689999999999,-0.00785231,1746802177802104
0.201526,0.19136,9.29591,-0.02502092,-0.005456689999999999,-0.00825158,1746802197778184
0.200928,0.1794,9.307272,-0.02408929,-0.00612214,-0.00891703,1746802217754244
0.188968,0.182988,9.291126,-0.023823109999999998,-0.00505742,-0.008783939999999999,1746802237730284
0.193752,0.184782,9.293518,-0.02448856,-0.005456689999999999,-0.007719219999999999,1746802257706364
0.2093,0.169832,9.297704,-0.02502092,-0.0034603399999999997,-0.00865085,1746802277682524
0.20631,0.190164,9.281558,-0.024355469999999997,-0.004391969999999999,-0.00785231,1746802297658624
0.213486,0.189566,9.265412,-0.02408929,-0.0038596099999999994,-0.008783939999999999,1746802317634644
0.196742,0.174018,9.29591,-0.024754739999999997,-0.004525059999999999,-0.007586129999999999,1746802337610684
0.199134,0.180596,9.294116,-0.023823109999999998,-0.005989049999999999,-0.00851776,1746802357586784
0.201526,0.184782,9.297106,-0.023556929999999997,-0.00505742,-0.008783939999999999,1746802377562864
0.196144,0.17342,9.278568,-0.02448856,-0.00505742,-0.007586129999999999,1746802397538904
0.205114,0.187772,9.296508,-0.02448856,-0.0058559599999999995,-0.007719219999999999,1746802417515004
0.207506,0.177606,9.298302,-0.02369002,-0.00505742,-0.00718686,1746802437491044
0.202124,0.166842,9.288136,-0.023556929999999997,-0.005589779999999999,-0.007053769999999999,1746802477443284
0.191958,0.184782,9.266608,-0.02329075,-0.005589779999999999,-0.007053769999999999,1746802497419344
0.18418400000000001,0.189566,9.267206,-0.025154009999999997,-0.00519051,-0.00678759,1746802517395364
0.19076200000000001,0.177606,9.283352,-0.02502092,-0.00519051,-0.007586129999999999,1746802537371404
0.202124,0.174616,9.29292,-0.02408929,-0.004525059999999999,-0.0073199499999999995,1746802557347424
0.190164,0.17641,9.316840000000001,-0.023956199999999997,-0.0039927,-0.007719219999999999,1746802577323504
0.19435,0.168636,9.29591,-0.023556929999999997,-0.00572287,-0.00851776,1746802597299504
0.199732,0.178204,9.296508,-0.024222379999999998,-0.00572287,-0.00825158,1746802617275364
0.191958,0.172822,9.335976,-0.02448856,-0.00465815,-0.00785231,1746802637251404
0.189566,0.187174,9.294714,-0.023024569999999998,-0.00425888,-0.008384669999999999,1746802657227404
0.18239,0.178204,9.280362,-0.02369002,-0.00572287,-0.00851776,1746802677203504
0.20033,0.185978,9.319232,-0.02408929,-0.00612214,-0.0079854,1746802697179564
0.194948,0.160264,9.297704,-0.02369002,-0.00505742,-0.0079854,1746802717155584
0.187174,0.17342,9.300694,-0.023823109999999998,-0.004525059999999999,-0.0079854,1746802737131644
0.186576,0.168636,9.300096,-0.02329075,-0.00465815,-0.00891703,1746802757107644
0.19734000000000002,0.168038,9.310262,-0.02329075,-0.00425888,-0.008384669999999999,1746802777083664
0.20033,0.177606,9.277372,-0.024887829999999996,-0.00425888,-0.00825158,1746801798059684
0.190164,0.159666,9.297704,-0.02462165,-0.004924329999999999,-0.00851776,1746801818035684
0.192556,0.178204,9.306674,-0.02448856,-0.0047912399999999996,-0.0079854,1746801838011844
0.197938,0.166842,9.303684,-0.024754739999999997,-0.0047912399999999996,-0.00785231,1746801857987844
0.19435,0.181792,9.319232,-0.02448856,-0.005456689999999999,-0.007453039999999999,1746801877963884
0.195546,0.177008,9.274382,-0.02462165,-0.005456689999999999,-0.008118489999999999,1746801897939924
0.206908,0.178802,9.286342,-0.02502092,-0.005989049999999999,-0.00785231,1746801917915964
0.196144,0.1794,9.29292,-0.024887829999999996,-0.0053235999999999995,-0.007719219999999999,1746801937891964
0.201526,0.1794,9.306076000000001,-0.02462165,-0.0053235999999999995,-0.007719219999999999,1746801957868024
0.193154,0.171626,9.273186,-0.023956199999999997,-0.0058559599999999995,-0.008384669999999999,1746801977844064
0.199134,0.1794,9.305478,-0.024222379999999998,-0.005456689999999999,-0.007453039999999999,1746801997820104
0.202722,0.172822,9.32581,-0.023024569999999998,-0.0053235999999999995,-0.008118489999999999,1746802017796104
0.183586,0.172822,9.297106,-0.02448856,-0.005456689999999999,-0.007053769999999999,1746802037772164
0.199732,0.177606,9.308468,-0.023823109999999998,-0.0053235999999999995,-0.007586129999999999,1746802057748224
0.200928,0.18837,9.301292,-0.02462165,-0.0047912399999999996,-0.00678759,1746802077724284
0.199732,0.178204,9.289332,-0.023556929999999997,-0.0053235999999999995,-0.007586129999999999,1746802097700164
0.185978,0.1794,9.27199,-0.024887829999999996,-0.004525059999999999,-0.00718686,1746802117676184
0.18837,0.174018,9.303684,-0.023956199999999997,-0.004525059999999999,-0.007719219999999999,1746802137652264
0.196144,0.171626,9.297704,-0.024887829999999996,-0.00465815,-0.007453039999999999,1746802157628264
0.199134,0.17043,9.299498,-0.024355469999999997,-0.004924329999999999,-0.0073199499999999995,1746802177604224
0.200928,0.174018,9.293518,-0.023556929999999997,-0.0053235999999999995,-0.007586129999999999,1746802197580184
0.190164,0.166244,9.30488,-0.024355469999999997,-0.00519051,-0.007453039999999999,1746802217556084
0.19734000000000002,0.175812,9.281558,-0.02369002,-0.00465815,-0.0073199499999999995,1746802237532164
0.194948,0.181792,9.295312000000001,-0.023956199999999997,-0.0053235999999999995,-0.007586129999999999,1746802257508224
0.19734000000000002,0.178204,9.315644,-0.02448856,-0.00505742,-0.007453039999999999,1746802277484184
0.194948,0.19136,9.27797,-0.02448856,-0.00572287,-0.00785231,1746802297460284
0.205114,0.181194,9.289332,-0.02408929,-0.00519051,-0.007453039999999999,1746802317436224
0.192556,0.174018,9.281558,-0.02408929,-0.0047912399999999996,-0.0079854,1746802337412204
0.216476,0.182988,9.295312000000001,-0.023423839999999998,-0.005456689999999999,-0.008118489999999999,1746802357388344
0.199732,0.179998,9.271392,-0.02462165,-0.00519051,-0.00785231,1746802377364364
0.19734000000000002,0.187174,9.311458,-0.02462165,-0.004391969999999999,-0.007586129999999999,1746802397340404
0.18837,0.186576,9.29292,-0.023823109999999998,-0.004924329999999999,-0.006920679999999999,1746802417316404
0.199134,0.171626,9.294714,-0.02408929,-0.0053235999999999995,-0.00785231,1746802437292284
0.211094,0.17641,9.284548000000001,-0.023823109999999998,-0.005989049999999999,-0.0079854,1746802457268324
0.193154,0.178802,9.324016,-0.023823109999999998,-0.005989049999999999,-0.00851776,1746802477244224
0.202124,0.166842,9.314448,-0.025154009999999997,-0.005589779999999999,-0.00718686,1746802497220244
0.186576,0.187772,9.282754,-0.024754739999999997,-0.00612214,-0.0079854,1746802517196304
0.197938,0.187772,9.28993,-0.024222379999999998,-0.00572287,-0.0079854,1746802537172324
0.204516,0.185978,9.28694,-0.023423839999999998,-0.0053235999999999995,-0.007719219999999999,1746802557148244
0.202124,0.185978,9.323418,-0.023956199999999997,-0.0047912399999999996,-0.007586129999999999,1746802577124324
0.20391800000000002,0.181792,9.282156,-0.024754739999999997,-0.004924329999999999,-0.00851776,1746802597100384
0.208104,0.190164,9.294714,-0.02448856,-0.0053235999999999995,-0.00785231,1746802617076404
0.208104,0.181194,9.297704,-0.024222379999999998,-0.00505742,-0.0073199499999999995,1746802637052344
0.19435,0.177606,9.29591,-0.02369002,-0.0039927,-0.006920679999999999,1746802657028364
0.19136,0.17641,9.28096,-0.02408929,-0.00519051,-0.007053769999999999,1746802677004404
0.196144,0.16445,9.288136,-0.024222379999999998,-0.004924329999999999,-0.0079854,1746802696980384
0.20033,0.174018,9.283352,-0.023956199999999997,-0.0047912399999999996,-0.007719219999999999,1746802716956544
0.21049600000000002,0.19734000000000002,9.305478,-0.023956199999999997,-0.0047912399999999996,-0.006654499999999999,1746802736932624
0.21049600000000002,0.181194,9.309066,-0.025686369999999997,-0.005589779999999999,-0.00825158,1746802756908584
0.211094,0.181792,9.282156,-0.024887829999999996,-0.005589779999999999,-0.007719219999999999,1746802776884684
0.21049600000000002,0.177606,9.306674,-0.023157659999999997,-0.00505742,-0.0079854,1746801797860684
0.199134,0.184782,9.310262,-0.023956199999999997,-0.004924329999999999,-0.008118489999999999,1746801817836664
0.205712,0.187174,9.312654,-0.023823109999999998,-0.00505742,-0.01038102,1746801837812724
0.202722,0.191958,9.302488,-0.023556929999999997,-0.00572287,-0.008384669999999999,1746801857788764
0.193752,0.17342,9.283352,-0.02408929,-0.00625523,-0.00785231,1746801877764764
0.20033,0.156078,9.29591,-0.023556929999999997,-0.0047912399999999996,-0.00891703,1746801897740844
0.214682,0.179998,9.310262,-0.02408929,-0.004924329999999999,-0.008783939999999999,1746801917716884
0.205712,0.172224,9.293518,-0.02408929,-0.005589779999999999,-0.007719219999999999,1746801937692844
0.198536,0.1794,9.291724,-0.024355469999999997,-0.006654499999999999,-0.0073199499999999995,1746801957668864
0.197938,0.19136,9.301292,-0.024222379999999998,-0.005589779999999999,-0.008783939999999999,1746801977644884
0.194948,0.169234,9.315046,-0.024222379999999998,-0.00505742,-0.00572287,1746801997620924
0.20631,0.16445,9.317438000000001,-0.02448856,-0.00505742,-0.007453039999999999,1746802017596924
0.195546,0.183586,9.287538,-0.025154009999999997,-0.00505742,-0.009449389999999998,1746802037572884
0.19435,0.177008,9.294116,-0.02502092,-0.00425888,-0.008384669999999999,1746802057548884
0.21229,0.17641,9.285146,-0.024754739999999997,-0.004924329999999999,-0.007453039999999999,1746802077524924
0.205114,0.178802,9.2989,-0.02502092,-0.004924329999999999,-0.008118489999999999,1746802097500904
0.21049600000000002,0.177008,9.285146,-0.024222379999999998,-0.0058559599999999995,-0.00865085,1746802117476904
0.208702,0.18239,9.288734,-0.02462165,-0.006521409999999999,-0.007453039999999999,1746802137452924
0.205114,0.177008,9.28694,-0.02448856,-0.005456689999999999,-0.007586129999999999,1746802157428904
0.193752,0.172822,9.288136,-0.02542019,-0.00505742,-0.008384669999999999,1746802177404904
0.192556,0.180596,9.291724,-0.024222379999999998,-0.00519051,-0.007053769999999999,1746802197380964
0.19734000000000002,0.188968,9.28993,-0.023024569999999998,-0.0053235999999999995,-0.007453039999999999,1746802217356944
0.213486,0.175812,9.301292,-0.02329075,-0.0053235999999999995,-0.00718686,1746802237332964
0.197938,0.174616,9.316840000000001,-0.024222379999999998,-0.00625523,-0.007453039999999999,1746802257308984
0.187174,0.175214,9.328202000000001,-0.024355469999999997,-0.005989049999999999,-0.008384669999999999,1746802277285084
0.190164,0.177606,9.308468,-0.023956199999999997,-0.00519051,-0.008118489999999999,1746802297261084
0.204516,0.179998,9.297704,-0.02462165,-0.00519051,-0.008118489999999999,1746802317237104
0.208104,0.189566,9.300096,-0.024222379999999998,-0.00465815,-0.00785231,1746802337213204
0.207506,0.182988,9.273186,-0.023823109999999998,-0.0058559599999999995,-0.008118489999999999,1746802357189044
0.212888,0.188968,9.30189,-0.02408929,-0.00612214,-0.00851776,1746802377165004
0.205712,0.193154,9.323418,-0.02448856,-0.0058559599999999995,-0.00825158,1746802397141064
0.202124,0.193752,9.309066,-0.024222379999999998,-0.00465815,-0.0073199499999999995,1746802417116904
0.207506,0.178204,9.297106,-0.024754739999999997,-0.0047912399999999996,-0.0079854,1746802437092984
0.19734000000000002,0.186576,9.305478,-0.02448856,-0.00505742,-0.00825158,1746802457069084
0.204516,0.177606,9.316242,-0.023956199999999997,-0.00425888,-0.008118489999999999,1746802477045144
0.18239,0.181792,9.312056,-0.023823109999999998,-0.00425888,-0.007586129999999999,1746802497021084
0.207506,0.186576,9.312056,-0.02369002,-0.004525059999999999,-0.007053769999999999,1746802516997064
0.205712,0.186576,9.311458,-0.02369002,-0.004391969999999999,-0.006920679999999999,1746802536972984
0.211692,0.175812,9.28694,-0.02408929,-0.005589779999999999,-0.0079854,1746802556948984
0.208104,0.166244,9.292322,-0.02369002,-0.00625523,-0.00825158,1746802576924964
0.192556,0.169832,9.279764,-0.023157659999999997,-0.004924329999999999,-0.007719219999999999,1746802596901004
0.21049600000000002,0.168636,9.285744,-0.023157659999999997,-0.00505742,-0.007719219999999999,1746802616877084
0.204516,0.172822,9.280362,-0.02408929,-0.00505742,-0.007719219999999999,1746802636853004
0.207506,0.16744,9.294116,-0.02502092,-0.0053235999999999995,-0.007719219999999999,1746802656828964
0.196742,0.188968,9.308468,-0.024222379999999998,-0.00572287,-0.00851776,1746802676804984
0.205712,0.181792,9.313252,-0.02408929,-0.005589779999999999,-0.008384669999999999,1746802696780964
0.21229,0.178802,9.306674,-0.02369002,-0.005589779999999999,-0.00825158,1746802716757124
0.207506,0.171626,9.294116,-0.02408929,-0.00625523,-0.00718686,1746802736733084
0.19435,0.18239,9.28096,-0.023956199999999997,-0.005456689999999999,-0.00825158,1746802756709024
0.205114,0.159666,9.299498,-0.023956199999999997,-0.00572287,-0.00785231,1746802776684984
0.194948,0.168636,9.303684,-0.023823109999999998,-0.0047912399999999996,-0.007586129999999999,1746801797660964
0.194948,0.172224,9.286342,-0.023956199999999997,-0.00519051,-0.00678759,1746801817636924
0.20391800000000002,0.165048,9.295312000000001,-0.02329075,-0.00572287,-0.00678759,1746801837612764
0.193752,0.187772,9.311458,-0.023556929999999997,-0.00519051,-0.00825158,1746801857588764
0.200928,0.17043,9.306076000000001,-0.023823109999999998,-0.00519051,-0.009050119999999998,1746801877564764
0.20332,0.193752,9.306674,-0.02408929,-0.004924329999999999,-0.007453039999999999,1746801897540784
0.189566,0.179998,9.299498,-0.024222379999999998,-0.005989049999999999,-0.0073199499999999995,1746801917516724
0.199732,0.172224,9.302488,-0.023556929999999997,-0.00572287,-0.007453039999999999,1746801937492764
0.191958,0.177008,9.28694,-0.02408929,-0.00519051,-0.0079854,1746801957468744
0.202124,0.175214,9.305478,-0.024222379999999998,-0.00612214,-0.00825158,1746801977444624
0.19734000000000002,0.18538,9.287538,-0.025154009999999997,-0.005456689999999999,-0.007719219999999999,1746801997420624
0.205114,0.17043,9.29292,-0.02448856,-0.004924329999999999,-0.008384669999999999,1746802017396764
0.211094,0.172822,9.306076000000001,-0.02448856,-0.00465815,-0.00851776,1746802037372784
0.20631,0.177606,9.2989,-0.02408929,-0.00519051,-0.00785231,1746802057348864
0.194948,0.172822,9.292322,-0.023556929999999997,-0.00505742,-0.008118489999999999,1746802077324744
0.204516,0.169832,9.297704,-0.02448856,-0.005989049999999999,-0.008384669999999999,1746802097300644
0.20033,0.174018,9.28993,-0.023823109999999998,-0.00572287,-0.007453039999999999,1746802117276684
0.20332,0.175812,9.283352,-0.023956199999999997,-0.00519051,-0.00718686,1746802137252784
0.213486,0.180596,9.293518,-0.02408929,-0.00519051,-0.007719219999999999,1746802157228784
0.19136,0.17641,9.306674,-0.024222379999999998,-0.0047912399999999996,-0.007719219999999999,1746802177204744
0.20033,0.182988,9.303684,-0.02502092,-0.0058559599999999995,-0.00718686,1746802197180704
0.196144,0.171028,9.315644,-0.025154009999999997,-0.00612214,-0.007719219999999999,1746802217156844
0.205712,0.166842,9.30488,-0.024355469999999997,-0.005456689999999999,-0.00825158,1746802237132824
0.204516,0.165048,9.27199,-0.023157659999999997,-0.004924329999999999,-0.00785231,1746802257108864
0.204516,0.190164,9.287538,-0.022625299999999997,-0.00519051,-0.007053769999999999,1746802277084804
0.187772,0.181194,9.281558,-0.02369002,-0.00505742,-0.00718686,1746802297060784
0.193752,0.162058,9.30488,-0.023556929999999997,-0.0037265199999999997,-0.007586129999999999,1746802317036764
0.202722,0.177008,9.299498,-0.023823109999999998,-0.0053235999999999995,-0.008118489999999999,1746802337012844
0.192556,0.181194,9.316242,-0.023556929999999997,-0.0047912399999999996,-0.0073199499999999995,1746802356988704
0.184782,0.178802,9.285744,-0.02369002,-0.00505742,-0.007586129999999999,1746802376964664
0.208104,0.175214,9.270196,-0.024222379999999998,-0.004924329999999999,-0.00785231,1746802396940644
0.199134,0.178802,9.298302,-0.02462165,-0.00572287,-0.007719219999999999,1746802416916644
0.20391800000000002,0.16744,9.299498,-0.024355469999999997,-0.005456689999999999,-0.008118489999999999,1746802436892624
0.197938,0.16445,9.312056,-0.02408929,-0.005456689999999999,-0.00971557,1746802456868604
0.190164,0.17641,9.290528,-0.023024569999999998,-0.005989049999999999,-0.008118489999999999,1746802476844644
0.200928,0.18239,9.28395,-0.023956199999999997,-0.006521409999999999,-0.00825158,1746802496820624
0.204516,0.174616,9.291126,-0.024355469999999997,-0.005989049999999999,-0.0079854,1746802516796584
0.199134,0.177606,9.344946,-0.023823109999999998,-0.00625523,-0.0073199499999999995,1746802536772504
0.205712,0.174018,9.309664,-0.024222379999999998,-0.005456689999999999,-0.008384669999999999,1746802556748404
0.196144,0.178204,9.297106,-0.023823109999999998,-0.0058559599999999995,-0.00718686,1746802576724464
0.20631,0.18418400000000001,9.300096,-0.02408929,-0.005589779999999999,-0.00825158,1746802596700404
0.204516,0.175214,9.302488,-0.02502092,-0.00572287,-0.00865085,1746802616676324
0.213486,0.187772,9.30787,-0.024222379999999998,-0.004525059999999999,-0.008384669999999999,1746802636652364
0.201526,0.166842,9.295312000000001,-0.02408929,-0.00505742,-0.008118489999999999,1746802656628164
0.21528,0.172224,9.306076000000001,-0.023823109999999998,-0.005456689999999999,-0.00785231,1746802676604184
0.199134,0.17641,9.287538,-0.023956199999999997,-0.0047912399999999996,-0.0073199499999999995,1746802696580084
0.199134,0.16445,9.287538,-0.024754739999999997,-0.00519051,-0.00825158,1746802716556024
0.202124,0.166842,9.289332,-0.02462165,-0.004924329999999999,-0.0079854,1746802736531984
0.208104,0.187772,9.278568,-0.024222379999999998,-0.005456689999999999,-0.008384669999999999,1746802756507924
0.200928,0.1794,9.303684,-0.024222379999999998,-0.00505742,-0.008783939999999999,1746802776483824
0.18418400000000001,0.178802,9.277372,-0.02462165,-0.00505742,-0.008384669999999999,1746801797459844
0.180596,0.194948,9.288136,-0.02408929,-0.005456689999999999,-0.007719219999999999,1746801817435944
0.188968,0.177008,9.305478,-0.024754739999999997,-0.00519051,-0.00851776,1746801837412004
0.18837,0.17342,9.29292,-0.024754739999999997,-0.00519051,-0.008118489999999999,1746801857387784
0.205712,0.181792,9.293518,-0.02448856,-0.00425888,-0.007053769999999999,1746801877363724
0.206908,0.172822,9.304282,-0.02462165,-0.004525059999999999,-0.006654499999999999,1746801897339564
0.200928,0.180596,9.27498,-0.02502092,-0.00519051,-0.007719219999999999,1746801917315504
0.205114,0.18837,9.295312000000001,-0.02448856,-0.00465815,-0.00785231,1746801937291504
0.205114,0.172822,9.282156,-0.024222379999999998,-0.00519051,-0.0079854,1746801957267584
0.191958,0.185978,9.282754,-0.02502092,-0.00519051,-0.0073199499999999995,1746801977243484
0.19435,0.181194,9.300694,-0.02408929,-0.005589779999999999,-0.0079854,1746801997219464
0.211094,0.181194,9.300694,-0.02408929,-0.00519051,-0.00825158,1746802017195504
0.212888,0.174616,9.299498,-0.02289148,-0.005589779999999999,-0.00865085,1746802037171524
0.195546,0.17043,9.285744,-0.02408929,-0.00572287,-0.008118489999999999,1746802057147484
0.201526,0.184782,9.309066,-0.02329075,-0.00572287,-0.00825158,1746802077123604
0.20332,0.165048,9.314448,-0.023556929999999997,-0.005589779999999999,-0.00785231,1746802097099624
0.213486,0.182988,9.293518,-0.024754739999999997,-0.0053235999999999995,-0.007586129999999999,1746802117075624
0.200928,0.181194,9.279764,-0.02462165,-0.0038596099999999994,-0.008118489999999999,1746802137051584
0.209898,0.18239,9.315644,-0.024754739999999997,-0.004924329999999999,-0.00718686,1746802157027624
0.20332,0.171028,9.30488,-0.024887829999999996,-0.0047912399999999996,-0.00785231,1746802177003684
0.195546,0.177008,9.300096,-0.024355469999999997,-0.0053235999999999995,-0.0073199499999999995,1746802196979684
0.197938,0.16445,9.308468,-0.023823109999999998,-0.0053235999999999995,-0.0073199499999999995,1746802216955604
0.201526,0.187174,9.274382,-0.023157659999999997,-0.00612214,-0.007719219999999999,1746802236931664
0.202124,0.177606,9.300096,-0.024355469999999997,-0.00519051,-0.0093163,1746802256907764
0.187174,0.18538,9.299498,-0.023823109999999998,-0.004924329999999999,-0.008118489999999999,1746802276883744
0.197938,0.171626,9.270196,-0.023157659999999997,-0.0047912399999999996,-0.0079854,1746802296859724
0.208104,0.171626,9.29292,-0.02329075,-0.0053235999999999995,-0.00785231,1746802316835744
0.20033,0.172224,9.278568,-0.02369002,-0.005456689999999999,-0.00825158,1746802336811744
0.188968,0.174616,9.297106,-0.02408929,-0.0053235999999999995,-0.00865085,1746802356787764
0.199732,0.186576,9.30787,-0.025154009999999997,-0.0053235999999999995,-0.00785231,1746802376763924
0.191958,0.186576,9.303684,-0.02448856,-0.0053235999999999995,-0.007586129999999999,1746802396739904
0.21229,0.172224,9.295312000000001,-0.024887829999999996,-0.0047912399999999996,-0.00785231,1746802416715884
0.19734000000000002,0.175214,9.277372,-0.024355469999999997,-0.00505742,-0.0073199499999999995,1746802436691844
0.193752,0.174018,9.303086,-0.024355469999999997,-0.005589779999999999,-0.007586129999999999,1746802456667724
0.193752,0.16744,9.316840000000001,-0.02329075,-0.0053235999999999995,-0.007453039999999999,1746802476643624
0.201526,0.183586,9.295312000000001,-0.02369002,-0.00572287,-0.007053769999999999,1746802496619704
0.2093,0.163852,9.285744,-0.02448856,-0.00505742,-0.00718686,1746802516595744
0.202722,0.181792,9.318036,-0.023556929999999997,-0.004525059999999999,-0.00785231,1746802536571824
0.208702,0.187772,9.302488,-0.023823109999999998,-0.005456689999999999,-0.00851776,1746802556547884
0.196144,0.166842,9.289332,-0.025287099999999996,-0.0047912399999999996,-0.0079854,1746802576523884
0.20391800000000002,0.180596,9.286342,-0.02502092,-0.0053235999999999995,-0.008384669999999999,1746802596499704
0.207506,0.192556,9.29292,-0.024754739999999997,-0.00505742,-0.006920679999999999,1746802616475764
0.198536,0.1794,9.327604000000001,-0.023556929999999997,-0.005456689999999999,-0.007453039999999999,1746802636451724
0.194948,0.186576,9.30189,-0.023423839999999998,-0.00519051,-0.00825158,1746802656427764
0.191958,0.181194,9.285744,-0.024222379999999998,-0.004924329999999999,-0.007719219999999999,1746802676403784
0.19734000000000002,0.169832,9.2989,-0.025287099999999996,-0.00519051,-0.0073199499999999995,1746802696379884
0.19136,0.1794,9.291126,-0.02408929,-0.004391969999999999,-0.007586129999999999,1746802716355744
0.194948,0.17342,9.2989,-0.023556929999999997,-0.0047912399999999996,-0.007453039999999999,1746802736331804
0.200928,0.18538,9.284548000000001,-0.022758389999999996,-0.004924329999999999,-0.007719219999999999,1746802756307804
0.209898,0.1794,9.28694,-0.023956199999999997,-0.00505742,-0.008384669999999999,1746802776283784
0.2093,0.168636,9.286342,-0.02448856,-0.00519051,-0.007719219999999999,1746801797259764
0.20332,0.182988,9.2989,-0.02369002,-0.005456689999999999,-0.00851776,1746801817235764
0.198536,0.17342,9.297106,-0.023556929999999997,-0.00412579,-0.00785231,1746801837211724
0.208104,0.190164,9.282156,-0.023024569999999998,-0.004391969999999999,-0.007586129999999999,1746801857187704
0.19734000000000002,0.166244,9.294116,-0.023956199999999997,-0.00412579,-0.007453039999999999,1746801877163624
0.197938,0.181792,9.311458,-0.024355469999999997,-0.00519051,-0.0079854,1746801897139544
0.205114,0.18239,9.308468,-0.02448856,-0.004924329999999999,-0.00825158,1746801917115504
0.19435,0.18837,9.314448,-0.02408929,-0.0039927,-0.0093163,1746801937091504
0.205712,0.18538,9.297704,-0.024355469999999997,-0.004391969999999999,-0.0093163,1746801957067464
0.184782,0.184782,9.288734,-0.024355469999999997,-0.004924329999999999,-0.00971557,1746801977043444
0.196742,0.18239,9.312654,-0.02462165,-0.00505742,-0.007719219999999999,1746801997019464
0.205114,0.181194,9.30189,-0.024222379999999998,-0.00425888,-0.00825158,1746802016995384
0.205114,0.18418400000000001,9.294116,-0.024222379999999998,-0.00505742,-0.007719219999999999,1746802036971324
0.195546,0.187174,9.28993,-0.023823109999999998,-0.0053235999999999995,-0.006388319999999999,1746802056947404
0.194948,0.171028,9.288136,-0.02329075,-0.00625523,-0.00572287,1746802076923384
0.197938,0.1794,9.306674,-0.024355469999999997,-0.00625523,-0.00718686,1746802096899344
0.192556,0.19734000000000002,9.285146,-0.024222379999999998,-0.00505742,-0.007719219999999999,1746802116875284
0.209898,0.177008,9.284548000000001,-0.024222379999999998,-0.00465815,-0.007453039999999999,1746802136851184
0.188968,0.18239,9.296508,-0.02462165,-0.004391969999999999,-0.007586129999999999,1746802156827224
0.212888,0.182988,9.303086,-0.02448856,-0.004525059999999999,-0.006920679999999999,1746802176803264
0.181194,0.166244,9.316840000000001,-0.02408929,-0.00505742,-0.00718686,1746802196779224
0.2093,0.171626,9.284548000000001,-0.023956199999999997,-0.0053235999999999995,-0.007586129999999999,1746802216755144
0.219466,0.18239,9.285744,-0.023423839999999998,-0.00519051,-0.007719219999999999,1746802236731444
0.20391800000000002,0.18837,9.30787,-0.023556929999999997,-0.00465815,-0.0079854,1746802256707444
0.20631,0.183586,9.285146,-0.023024569999999998,-0.004924329999999999,-0.007053769999999999,1746802276683564
0.199732,0.168636,9.284548000000001,-0.02369002,-0.00505742,-0.007453039999999999,1746802296659544
0.193154,0.175214,9.290528,-0.024222379999999998,-0.004525059999999999,-0.00785231,1746802316635444
0.193752,0.178802,9.293518,-0.023556929999999997,-0.00505742,-0.00865085,1746802336611384
0.20391800000000002,0.180596,9.327006,-0.024355469999999997,-0.00465815,-0.00785231,1746802356587384
0.205114,0.187772,9.273186,-0.024754739999999997,-0.00465815,-0.00678759,1746802376563344
0.21229,0.17342,9.312056,-0.024355469999999997,-0.005589779999999999,-0.007453039999999999,1746802396539364
0.212888,0.181194,9.288734,-0.02408929,-0.005589779999999999,-0.00785231,1746802416515404
0.209898,0.175214,9.283352,-0.023823109999999998,-0.004525059999999999,-0.009050119999999998,1746802436491344
0.197938,0.185978,9.283352,-0.023956199999999997,-0.005456689999999999,-0.00785231,1746802456467224
0.18418400000000001,0.175812,9.279166,-0.023823109999999998,-0.00612214,-0.006654499999999999,1746802476443344
0.204516,0.18418400000000001,9.286342,-0.025154009999999997,-0.005456689999999999,-0.007719219999999999,1746802496419204
0.195546,0.183586,9.289332,-0.02408929,-0.0053235999999999995,-0.007719219999999999,1746802516395244
0.201526,0.18418400000000001,9.304282,-0.02408929,-0.00412579,-0.00785231,1746802536371204
0.22245600000000001,0.165048,9.298302,-0.02408929,-0.00572287,-0.007586129999999999,1746802556347224
0.199732,0.168636,9.25704,-0.024355469999999997,-0.0053235999999999995,-0.00825158,1746802576323184
0.205114,0.186576,9.266608,-0.024887829999999996,-0.0053235999999999995,-0.00851776,1746802596299204
0.19734000000000002,0.177008,9.288136,-0.02448856,-0.005989049999999999,-0.00891703,1746802616275284
0.181792,0.180596,9.285744,-0.024222379999999998,-0.00612214,-0.009582479999999999,1746802636251304
0.205712,0.183586,9.288734,-0.023556929999999997,-0.00572287,-0.00825158,1746802656227264
0.205114,0.178204,9.295312000000001,-0.023956199999999997,-0.00572287,-0.0073199499999999995,1746802676203244
0.184782,0.179998,9.297704,-0.024355469999999997,-0.004924329999999999,-0.00625523,1746802696179184
0.212888,0.19076200000000001,9.302488,-0.02369002,-0.004525059999999999,-0.007719219999999999,1746802716155044
0.20332,0.19076200000000001,9.288136,-0.024222379999999998,-0.005589779999999999,-0.00785231,1746802736131164
0.21049600000000002,0.197938,9.30488,-0.02369002,-0.0058559599999999995,-0.008384669999999999,1746802756107224
0.184782,0.18239,9.297704,-0.023423839999999998,-0.0058559599999999995,-0.00825158,1746802776083204
0.186576,0.178204,9.305478,-0.023423839999999998,-0.00519051,-0.008118489999999999,1746801797059024
0.19435,0.181194,9.311458,-0.023956199999999997,-0.0047912399999999996,-0.008118489999999999,1746801817034884
0.20332,0.169234,9.296508,-0.02408929,-0.00465815,-0.00785231,1746801837010884
0.192556,0.175214,9.297106,-0.024222379999999998,-0.005589779999999999,-0.008118489999999999,1746801856986864
0.219466,0.17641,9.302488,-0.023956199999999997,-0.0058559599999999995,-0.00718686,1746801876962504
0.197938,0.181792,9.285146,-0.02408929,-0.00572287,-0.008118489999999999,1746801896938464
0.196742,0.177606,9.300096,-0.024355469999999997,-0.005989049999999999,-0.008118489999999999,1746801916914324
0.205712,0.171028,9.295312000000001,-0.02408929,-0.005456689999999999,-0.009449389999999998,1746801936890264
0.182988,0.194948,9.306674,-0.02408929,-0.005989049999999999,-0.008118489999999999,1746801956866284
0.19136,0.178802,9.280362,-0.02408929,-0.00505742,-0.009050119999999998,1746801976842244
0.19076200000000001,0.169234,9.288136,-0.023556929999999997,-0.005456689999999999,-0.00825158,1746801996818124
0.204516,0.171626,9.306674,-0.023423839999999998,-0.005589779999999999,-0.007719219999999999,1746802016794024
0.202124,0.169234,9.316242,-0.024355469999999997,-0.0053235999999999995,-0.0073199499999999995,1746802036769884
0.19136,0.18538,9.300096,-0.024355469999999997,-0.0053235999999999995,-0.00718686,1746802056745804
0.207506,0.185978,9.2989,-0.024222379999999998,-0.0053235999999999995,-0.0073199499999999995,1746802076721664
0.198536,0.18418400000000001,9.307272,-0.024222379999999998,-0.0053235999999999995,-0.00718686,1746802096697824
0.205712,0.195546,9.28993,-0.02289148,-0.004525059999999999,-0.007719219999999999,1746802116673744
0.20033,0.180596,9.30488,-0.024754739999999997,-0.00572287,-0.006654499999999999,1746802136649784
0.186576,0.175214,9.307272,-0.02448856,-0.00465815,-0.0073199499999999995,1746802156625724
0.201526,0.185978,9.327006,-0.02408929,-0.00519051,-0.00718686,1746802176601704
0.194948,0.183586,9.300096,-0.023823109999999998,-0.0058559599999999995,-0.00891703,1746802196577584
0.208104,0.179998,9.293518,-0.023556929999999997,-0.00505742,-0.00785231,1746802216553704
0.192556,0.183586,9.299498,-0.02369002,-0.00505742,-0.008118489999999999,1746802236529584
0.2093,0.168636,9.29591,-0.02408929,-0.004924329999999999,-0.00718686,1746802256505464
0.19734000000000002,0.178204,9.271392,-0.023556929999999997,-0.00505742,-0.007053769999999999,1746802276481424
0.192556,0.181792,9.2989,-0.02408929,-0.0053235999999999995,-0.00718686,1746802296457284
0.190164,0.178204,9.315046,-0.023956199999999997,-0.00612214,-0.00785231,1746802316433384
0.208104,0.174018,9.29292,-0.02462165,-0.00505742,-0.00785231,1746802336409404
0.197938,0.18418400000000001,9.312056,-0.023423839999999998,-0.004525059999999999,-0.0073199499999999995,1746802356385504
0.20391800000000002,0.169234,9.288734,-0.02369002,-0.004924329999999999,-0.00718686,1746802376361364
0.205712,0.17641,9.297704,-0.024355469999999997,-0.005989049999999999,-0.007586129999999999,1746802396337344
0.19136,0.17043,9.295312000000001,-0.02462165,-0.0053235999999999995,-0.0073199499999999995,1746802416313384
0.205114,0.171626,9.29292,-0.02369002,-0.00412579,-0.008118489999999999,1746802436289444
0.204516,0.175812,9.275578,-0.023823109999999998,-0.00465815,-0.00865085,1746802456265404
0.2093,0.171626,9.294714,-0.023823109999999998,-0.005589779999999999,-0.00891703,1746802476241424
0.196144,0.18239,9.307272,-0.023823109999999998,-0.00572287,-0.008118489999999999,1746802496217524
0.19435,0.178802,9.301292,-0.02369002,-0.00505742,-0.007053769999999999,1746802516193624
0.199732,0.177008,9.294116,-0.02369002,-0.00519051,-0.008118489999999999,1746802536169564
0.199732,0.181194,9.292322,-0.023423839999999998,-0.004924329999999999,-0.009050119999999998,1746802556145544
0.20033,0.186576,9.308468,-0.024355469999999997,-0.0047912399999999996,-0.00825158,1746802576121464
0.194948,0.175214,9.311458,-0.02369002,-0.004525059999999999,-0.007453039999999999,1746802596097464
0.21049600000000002,0.175214,9.308468,-0.023423839999999998,-0.00505742,-0.007453039999999999,1746802616073524
0.200928,0.1794,9.312654,-0.02448856,-0.004924329999999999,-0.0073199499999999995,1746802636049784
0.196144,0.171028,9.29292,-0.024222379999999998,-0.0047912399999999996,-0.008384669999999999,1746802656025884
0.211692,0.169832,9.296508,-0.023823109999999998,-0.0047912399999999996,-0.00785231,1746802676001964
0.20332,0.186576,9.282754,-0.023823109999999998,-0.004391969999999999,-0.006920679999999999,1746802695977944
0.208104,0.177606,9.28694,-0.023157659999999997,-0.005456689999999999,-0.007719219999999999,1746802715954044
0.19734000000000002,0.18239,9.28096,-0.02329075,-0.004924329999999999,-0.008118489999999999,1746802735929944
0.20391800000000002,0.182988,9.290528,-0.02462165,-0.0058559599999999995,-0.008118489999999999,1746802755905964
0.19435,0.180596,9.29292,-0.023423839999999998,-0.00612214,-0.0079854,1746802775881964
0.205712,0.1794,9.283352,-0.023423839999999998,-0.0053235999999999995,-0.0073199499999999995,1746801796858004
0.204516,0.182988,9.278568,-0.02448856,-0.00519051,-0.00825158,1746801816833984
0.194948,0.17342,9.282754,-0.023823109999999998,-0.0058559599999999995,-0.0079854,1746801836810044
0.207506,0.181792,9.300694,-0.023823109999999998,-0.00519051,-0.007719219999999999,1746801856785904
0.18538,0.169832,9.285744,-0.023556929999999997,-0.0053235999999999995,-0.007586129999999999,1746801876761844
0.211094,0.177606,9.279166,-0.024355469999999997,-0.0053235999999999995,-0.00785231,1746801896737864
0.194948,0.17342,9.269,-0.024222379999999998,-0.005589779999999999,-0.00865085,1746801916713804
0.196144,0.18239,9.300096,-0.02408929,-0.0047912399999999996,-0.006920679999999999,1746801936689944
0.197938,0.1794,9.310262,-0.023157659999999997,-0.004924329999999999,-0.006920679999999999,1746801956665724
0.205114,0.194948,9.28395,-0.023157659999999997,-0.00505742,-0.0073199499999999995,1746801976641644
0.195546,0.177008,9.315644,-0.023823109999999998,-0.00572287,-0.007053769999999999,1746801996617584
0.20033,0.17641,9.283352,-0.02329075,-0.0047912399999999996,-0.007586129999999999,1746802016593664
0.20631,0.17641,9.293518,-0.02369002,-0.00505742,-0.007053769999999999,1746802036569604
0.200928,0.172224,9.294116,-0.024355469999999997,-0.00505742,-0.00785231,1746802056545604
0.202124,0.175214,9.310262,-0.023823109999999998,-0.0047912399999999996,-0.006654499999999999,1746802076521544
0.200928,0.172822,9.31385,-0.024222379999999998,-0.0053235999999999995,-0.006920679999999999,1746802096497404
0.211692,0.168038,9.28395,-0.02408929,-0.00519051,-0.007719219999999999,1746802116473304
0.202722,0.181194,9.31086,-0.02408929,-0.00425888,-0.0073199499999999995,1746802136449244
0.196742,0.188968,9.29292,-0.023823109999999998,-0.00505742,-0.008118489999999999,1746802156425264
0.208104,0.174616,9.292322,-0.02462165,-0.0058559599999999995,-0.009050119999999998,1746802176401284
0.20033,0.18538,9.314448,-0.024222379999999998,-0.006388319999999999,-0.00825158,1746802196377304
0.208702,0.166244,9.296508,-0.024887829999999996,-0.005589779999999999,-0.007586129999999999,1746802216353184
0.199134,0.180596,9.31086,-0.025287099999999996,-0.0053235999999999995,-0.007719219999999999,1746802236329184
0.21229,0.185978,9.293518,-0.024222379999999998,-0.004391969999999999,-0.00785231,1746802256305144
0.212888,0.174018,9.30189,-0.02502092,-0.0038596099999999994,-0.006920679999999999,1746802276281064
0.202124,0.168636,9.281558,-0.02448856,-0.005456689999999999,-0.007586129999999999,1746802296256944
0.21528,0.184782,9.309066,-0.02462165,-0.0053235999999999995,-0.008118489999999999,1746802316232904
0.206908,0.163254,9.309664,-0.024222379999999998,-0.0047912399999999996,-0.008783939999999999,1746802336208904
0.19136,0.168038,9.309664,-0.025154009999999997,-0.004924329999999999,-0.00785231,1746802356184884
0.19734000000000002,0.169234,9.277372,-0.02542019,-0.004924329999999999,-0.006920679999999999,1746802376160904
0.205114,0.187772,9.302488,-0.02462165,-0.00519051,-0.00678759,1746802396136864
0.201526,0.17641,9.305478,-0.024222379999999998,-0.00505742,-0.0079854,1746802416112784
0.207506,0.19435,9.288734,-0.023823109999999998,-0.004924329999999999,-0.00865085,1746802436088724
0.205114,0.16744,9.297704,-0.02408929,-0.005589779999999999,-0.008384669999999999,1746802456064784
0.190164,0.184782,9.285744,-0.023556929999999997,-0.004924329999999999,-0.0079854,1746802476040784
0.187772,0.165048,9.30189,-0.02408929,-0.004924329999999999,-0.008384669999999999,1746802496016844
0.219466,0.15548,9.314448,-0.024222379999999998,-0.0053235999999999995,-0.008384669999999999,1746802515992744
0.200928,0.179998,9.282754,-0.024754739999999997,-0.005589779999999999,-0.007719219999999999,1746802535968924
0.18837,0.168636,9.282754,-0.02462165,-0.006654499999999999,-0.007586129999999999,1746802555944944
0.19435,0.159666,9.285146,-0.023823109999999998,-0.00519051,-0.00785231,1746802575920904
0.205114,0.168038,9.306674,-0.02408929,-0.0058559599999999995,-0.0079854,1746802595896984
0.194948,0.17342,9.326408,-0.023556929999999997,-0.00519051,-0.0073199499999999995,1746802615872964
0.20332,0.18837,9.297704,-0.02369002,-0.005456689999999999,-0.00825158,1746802635848964
0.198536,0.172224,9.300096,-0.023157659999999997,-0.00505742,-0.00678759,1746802655824784
0.199732,0.182988,9.295312000000001,-0.02448856,-0.00465815,-0.00718686,1746802675800724
0.205712,0.181194,9.296508,-0.02462165,-0.0037265199999999997,-0.0073199499999999995,1746802695776604
0.19734000000000002,0.178204,9.27498,-0.02448856,-0.004924329999999999,-0.007053769999999999,1746802715752624
0.205712,0.175214,9.300694,-0.024355469999999997,-0.00612214,-0.00785231,1746802735728664
0.19136,0.16445,9.27498,-0.02448856,-0.0058559599999999995,-0.007719219999999999,1746802755704624
0.194948,0.177008,9.282156,-0.023157659999999997,-0.00465815,-0.008384669999999999,1746802775680624
0.20631,0.192556,9.285146,-0.023956199999999997,-0.00425888,-0.00851776,1746801796656964
0.217074,0.172822,9.297106,-0.023956199999999997,-0.004391969999999999,-0.0079854,1746801816632844
0.19435,0.172224,9.294116,-0.024355469999999997,-0.0039927,-0.007053769999999999,1746801836608804
0.193154,0.197938,9.287538,-0.02462165,-0.004924329999999999,-0.007453039999999999,1746801856584924
0.199732,0.174018,9.292322,-0.024355469999999997,-0.00425888,-0.00785231,1746801876560964
0.198536,0.171028,9.28395,-0.024754739999999997,-0.00572287,-0.00825158,1746801896536944
0.20332,0.18837,9.29292,-0.02462165,-0.00505742,-0.00785231,1746801916512724
0.20033,0.18418400000000001,9.31983,-0.02462165,-0.00465815,-0.0073199499999999995,1746801936488684
0.206908,0.17641,9.311458,-0.02408929,-0.0053235999999999995,-0.007586129999999999,1746801956464584
0.20631,0.174018,9.282156,-0.02448856,-0.00572287,-0.00718686,1746801976440524
0.19435,0.1794,9.303086,-0.02408929,-0.00505742,-0.008118489999999999,1746801996416424
0.18837,0.168636,9.299498,-0.024355469999999997,-0.00519051,-0.008783939999999999,1746802016392324
0.20033,0.181792,9.304282,-0.024355469999999997,-0.00572287,-0.00825158,1746802036368244
0.197938,0.193752,9.30189,-0.023956199999999997,-0.00519051,-0.008384669999999999,1746802056344224
0.209898,0.17043,9.291126,-0.024222379999999998,-0.00612214,-0.008118489999999999,1746802076320124
0.188968,0.181792,9.270196,-0.023823109999999998,-0.005589779999999999,-0.0079854,1746802096295984
0.195546,0.178802,9.299498,-0.024355469999999997,-0.004525059999999999,-0.00865085,1746802116271844
0.202722,0.181194,9.293518,-0.023956199999999997,-0.0053235999999999995,-0.008384669999999999,1746802136247784
0.20391800000000002,0.182988,9.305478,-0.023556929999999997,-0.00505742,-0.00785231,1746802156223764
0.193752,0.16146,9.285744,-0.02408929,-0.0047912399999999996,-0.008118489999999999,1746802176199484
0.187772,0.19136,9.28096,-0.02408929,-0.005589779999999999,-0.0073199499999999995,1746802196175464
0.191958,0.19435,9.31086,-0.024355469999999997,-0.004525059999999999,-0.008384669999999999,1746802216151404
0.200928,0.162656,9.30189,-0.023556929999999997,-0.004391969999999999,-0.00865085,1746802236127244
0.20391800000000002,0.178802,9.292322,-0.02408929,-0.00425888,-0.007053769999999999,1746802256103204
0.205712,0.172822,9.269598,-0.023157659999999997,-0.00425888,-0.007453039999999999,1746802276079164
0.201526,0.175214,9.308468,-0.023157659999999997,-0.004391969999999999,-0.008118489999999999,1746802296055144
