ax,ay,az,rx,ry,rz,timestamp
0.361192,0.26312,-10.377094,-0.024222379999999998,-0.0053235999999999995,-0.007586129999999999,1746802046359824
0.379132,0.263718,-10.4052,-0.02369002,-0.004391969999999999,-0.006920679999999999,1746802066335184
0.374348,0.270894,-10.38726,-0.024222379999999998,-0.00465815,-0.00678759,1746802086310644
0.365378,0.277472,-10.400416,-0.024754739999999997,-0.00465815,-0.009050119999999998,1746802106286044
0.365976,0.26611,-10.395034,-0.02448856,-0.00465815,-0.008384669999999999,1746802126261484
0.37674,0.259532,-10.401014,-0.02369002,-0.004924329999999999,-0.00851776,1746802146236864
0.389298,0.274482,-10.39922,-0.023956199999999997,-0.00519051,-0.007719219999999999,1746802166212264
0.379132,0.264316,-10.390848,-0.02369002,-0.004525059999999999,-0.006654499999999999,1746802186187504
0.37614200000000003,0.276874,-10.373506,-0.024887829999999996,-0.0039927,-0.007453039999999999,1746802206162764
0.357604,0.276276,-10.41118,-0.02448856,-0.004525059999999999,-0.0079854,1746802226138164
0.37973,0.26611,-10.406994000000001,-0.024355469999999997,-0.0047912399999999996,-0.008384669999999999,1746802246113564
0.371358,0.27328600000000003,-10.383074,-0.02369002,-0.00465815,-0.00785231,1746802266089004
0.373152,0.276874,-10.367526,-0.024754739999999997,-0.004391969999999999,-0.007586129999999999,1746802286064524
0.37674,0.260728,-10.37829,-0.02448856,-0.0047912399999999996,-0.008384669999999999,1746802306039844
0.382122,0.25415,-10.420748,-0.025154009999999997,-0.0037265199999999997,-0.008384669999999999,1746802326015364
0.377338,0.2691,-10.377094,-0.02408929,-0.004391969999999999,-0.0073199499999999995,1746802345990584
0.3588,0.269698,-10.392044,-0.02462165,-0.004525059999999999,-0.008783939999999999,1746802365965844
0.372554,0.270296,-10.381878,-0.022758389999999996,-0.00412579,-0.007453039999999999,1746802385941104
0.359996,0.264914,-10.39922,-0.023956199999999997,-0.0047912399999999996,-0.00678759,1746802405916384
0.366574,0.276276,-10.38427,-0.024355469999999997,-0.0058559599999999995,-0.008384669999999999,1746802425891764
0.37375,0.276874,-10.40221,-0.023823109999999998,-0.004924329999999999,-0.00891703,1746802445867104
0.374348,0.264914,-10.391446,-0.02408929,-0.00505742,-0.00825158,1746802465842464
0.371956,0.261326,-10.396230000000001,-0.02408929,-0.00505742,-0.00785231,1746802485817844
0.374348,0.273884,-10.39025,-0.023024569999999998,-0.00572287,-0.007453039999999999,1746802505793204
0.36298600000000003,0.252356,-10.381878,-0.024754739999999997,-0.0047912399999999996,-0.00785231,1746802525768464
0.383318,0.269698,-10.406994000000001,-0.024754739999999997,-0.004924329999999999,-0.00825158,1746802545743804
0.38152400000000003,0.276276,-10.406994000000001,-0.024887829999999996,-0.00572287,-0.00851776,1746802565719224
0.371956,0.279266,-10.396230000000001,-0.024222379999999998,-0.0039927,-0.007453039999999999,1746802585694624
0.37375,0.273884,-10.415366,-0.023956199999999997,-0.004391969999999999,-0.007719219999999999,1746802605669984
0.366574,0.278668,-10.41716,-0.02462165,-0.00465815,-0.008118489999999999,1746802625645284
0.36478,0.2691,-10.412974,-0.024222379999999998,-0.0047912399999999996,-0.007453039999999999,1746802645620624
0.37973,0.27807,-10.377692,-0.023423839999999998,-0.00505742,-0.007453039999999999,1746802665595904
0.377338,0.280462,-10.399818,-0.02408929,-0.00505742,-0.007586129999999999,1746802685571224
0.375544,0.26790400000000003,-10.389054,-0.023556929999999997,-0.00519051,-0.007719219999999999,1746802705546604
0.374946,0.268502,-10.393838,-0.02448856,-0.004924329999999999,-0.0079854,1746802725521884
0.380926,0.276276,-10.389054,-0.024222379999999998,-0.005589779999999999,-0.008118489999999999,1746802745497404
0.37973,0.26611,-10.383074,-0.02408929,-0.00519051,-0.006654499999999999,1746802765472804
0.37614200000000003,0.270894,-10.400416,-0.02448856,-0.00505742,-0.00678759,1746802785448244
0.365378,0.264914,-10.405798,-0.02448856,-0.00519051,-0.00678759,1746802805423644
0.380328,0.268502,-10.404602,-0.02448856,-0.00465815,-0.009050119999999998,1746802825399124
0.37375,0.265512,-10.409386,-0.02448856,-0.005589779999999999,-0.009050119999999998,1746802845374484
0.370162,0.25714,-10.395034,-0.025553279999999998,-0.00505742,-0.008384669999999999,1746802865350004
0.375544,0.273884,-10.390848,-0.02542019,-0.0047912399999999996,-0.00865085,1746802885325404
0.360594,0.279864,-10.384868,-0.024887829999999996,-0.005456689999999999,-0.008118489999999999,1746802905300704
0.377936,0.270296,-10.410582,-0.02462165,-0.00505742,-0.0073199499999999995,1746801926275984
0.382122,0.26790400000000003,-10.395632,-0.024355469999999997,-0.0039927,-0.006920679999999999,1746801946251344
0.371956,0.27328600000000003,-10.392642,-0.024754739999999997,-0.00505742,-0.007053769999999999,1746801966226664
0.375544,0.26312,-10.406994000000001,-0.024355469999999997,-0.00519051,-0.00718686,1746801986202084
0.37674,0.27807,-10.415366,-0.02408929,-0.00519051,-0.007053769999999999,1746802006177364
0.377936,0.276874,-10.39922,-0.024754739999999997,-0.00519051,-0.00625523,1746802026152744
0.379132,0.272688,-10.386064,-0.02502092,-0.0053235999999999995,-0.006521409999999999,1746802046128184
0.368966,0.269698,-10.403406,-0.024754739999999997,-0.00519051,-0.006920679999999999,1746802066103484
0.377338,0.270894,-10.380682,-0.02369002,-0.0053235999999999995,-0.008384669999999999,1746802086078804
0.365378,0.27508,-10.385466000000001,-0.023556929999999997,-0.00519051,-0.00851776,1746802106054224
0.364182,0.27209,-10.379486,-0.02408929,-0.00412579,-0.0073199499999999995,1746802126029564
0.37076,0.270894,-10.392044,-0.024355469999999997,-0.00505742,-0.00718686,1746802146004824
0.367172,0.264316,-10.390848,-0.023956199999999997,-0.004924329999999999,-0.007586129999999999,1746802165980244
0.360594,0.288834,-10.406994000000001,-0.023823109999999998,-0.004391969999999999,-0.008118489999999999,1746802185955624
0.369564,0.270894,-10.402808,-0.02448856,-0.004391969999999999,-0.00718686,1746802205930924
0.380328,0.263718,-10.38128,-0.025553279999999998,-0.005589779999999999,-0.00785231,1746802225906264
0.379132,0.271492,-10.401014,-0.02502092,-0.00412579,-0.007586129999999999,1746802245881604
0.35282,0.258336,-10.379486,-0.02448856,-0.0053235999999999995,-0.00865085,1746802265856904
0.383318,0.270296,-10.381878,-0.02408929,-0.00625523,-0.0079854,1746802285832264
0.36777,0.261326,-10.409386,-0.023423839999999998,-0.0047912399999999996,-0.007719219999999999,1746802305807664
0.374946,0.268502,-10.396828,-0.024222379999999998,-0.0053235999999999995,-0.0073199499999999995,1746802325782984
0.357006,0.275678,-10.390848,-0.024355469999999997,-0.00505742,-0.007719219999999999,1746802345758344
0.369564,0.264316,-10.413572,-0.023956199999999997,-0.00465815,-0.007719219999999999,1746802365733744
0.378534,0.272688,-10.38726,-0.024222379999999998,-0.00425888,-0.00851776,1746802385708944
0.37674,0.265512,-10.395632,-0.02448856,-0.00465815,-0.00825158,1746802405684284
0.36298600000000003,0.264914,-10.386662,-0.023956199999999997,-0.00572287,-0.0073199499999999995,1746802425659604
0.377936,0.270296,-10.39324,-0.02448856,-0.00505742,-0.007453039999999999,1746802445634884
0.371358,0.265512,-10.377094,-0.02448856,-0.0039927,-0.007719219999999999,1746802465610184
0.37614200000000003,0.270894,-10.39025,-0.023423839999999998,-0.005989049999999999,-0.00785231,1746802485585544
0.36777,0.258336,-10.371712,-0.02369002,-0.0053235999999999995,-0.006920679999999999,1746802505560744
0.365976,0.262522,-10.368722,-0.02502092,-0.0058559599999999995,-0.00785231,1746802525536064
0.379132,0.28704,-10.396230000000001,-0.024355469999999997,-0.0047912399999999996,-0.008118489999999999,1746802545511384
0.37614200000000003,0.28405,-10.386662,-0.024754739999999997,-0.004525059999999999,-0.00718686,1746802565486684
0.36179,0.266708,-10.387858,-0.02502092,-0.004391969999999999,-0.007586129999999999,1746802585462044
0.3588,0.280462,-10.395034,-0.025154009999999997,-0.005456689999999999,-0.00825158,1746802605437384
0.354016,0.264316,-10.386662,-0.023956199999999997,-0.0037265199999999997,-0.008118489999999999,1746802625412704
0.371956,0.25714,-10.382476,-0.02448856,-0.00519051,-0.0079854,1746802645388024
0.354016,0.258336,-10.366928,-0.023956199999999997,-0.00519051,-0.0079854,1746802665363384
0.374946,0.27209,-10.396828,-0.024754739999999997,-0.00412579,-0.007453039999999999,1746802685338664
0.38272,0.26790400000000003,-10.396828,-0.024355469999999997,-0.004525059999999999,-0.007719219999999999,1746802705314004
0.385112,0.259532,-10.378888,-0.024355469999999997,-0.004391969999999999,-0.007586129999999999,1746802725289404
0.36777,0.256542,-10.396828,-0.023423839999999998,-0.00425888,-0.00785231,1746802745264604
0.38152400000000003,0.264914,-10.392044,-0.024222379999999998,-0.005589779999999999,-0.00678759,1746802765239944
0.378534,0.27209,-10.411778,-0.024754739999999997,-0.0053235999999999995,-0.007453039999999999,1746802785215384
0.362388,0.277472,-10.404602,-0.024754739999999997,-0.00519051,-0.0073199499999999995,1746802805190724
0.371956,0.276874,-10.374702000000001,-0.02462165,-0.0047912399999999996,-0.00718686,1746802825166484
0.366574,0.276874,-10.415964,-0.02448856,-0.0047912399999999996,-0.007719219999999999,1746802845141744
0.367172,0.276874,-10.38427,-0.025154009999999997,-0.00519051,-0.00718686,1746802865116944
0.36836800000000003,0.272688,-10.404602,-0.025287099999999996,-0.0053235999999999995,-0.006654499999999999,1746802885092304
0.386308,0.268502,-10.410582,-0.024222379999999998,-0.00572287,-0.006521409999999999,1746802905067744
0.38152400000000003,0.269698,-10.380682,-0.02408929,-0.0053235999999999995,-0.00785231,1746801926043064
0.386308,0.264316,-10.41417,-0.02408929,-0.00572287,-0.007586129999999999,1746801946018424
0.361192,0.26312,-10.39324,-0.024355469999999997,-0.00505742,-0.008783939999999999,1746801965993884
0.37614200000000003,0.281658,-10.396828,-0.024754739999999997,-0.00572287,-0.008384669999999999,1746801985969344
0.372554,0.268502,-10.380084,-0.023823109999999998,-0.005456689999999999,-0.007719219999999999,1746802005944704
0.37674,0.276874,-10.39025,-0.02408929,-0.00519051,-0.0073199499999999995,1746802025920064
0.36836800000000003,0.275678,-10.424336,-0.023956199999999997,-0.00505742,-0.0079854,1746802045895524
0.366574,0.259532,-10.39025,-0.023556929999999997,-0.00505742,-0.00851776,1746802065870864
0.3887,0.27508,-10.371712,-0.02408929,-0.00505742,-0.0073199499999999995,1746802085846264
0.386906,0.278668,-10.396230000000001,-0.023556929999999997,-0.00519051,-0.008384669999999999,1746802105821724
0.373152,0.277472,-10.407592,-0.02448856,-0.00505742,-0.008118489999999999,1746802125797104
0.3588,0.273884,-10.402808,-0.02408929,-0.005456689999999999,-0.007586129999999999,1746802145772484
0.370162,0.270894,-10.401014,-0.02502092,-0.0047912399999999996,-0.007453039999999999,1746802165748124
0.3588,0.262522,-10.380084,-0.025154009999999997,-0.0039927,-0.00678759,1746802185723524
0.36298600000000003,0.264316,-10.383074,-0.024754739999999997,-0.00505742,-0.0073199499999999995,1746802205698964
0.366574,0.270296,-10.37829,-0.024355469999999997,-0.00505742,-0.006521409999999999,1746802225674564
0.372554,0.27209,-10.3753,-0.023556929999999997,-0.0047912399999999996,-0.0073199499999999995,1746802245650124
0.36478,0.264316,-10.38726,-0.02408929,-0.004924329999999999,-0.007053769999999999,1746802265625604
0.371358,0.270894,-10.389652,-0.023157659999999997,-0.00359343,-0.0073199499999999995,1746802285601124
0.389896,0.271492,-10.373506,-0.024355469999999997,-0.0039927,-0.007719219999999999,1746802305576784
0.367172,0.257738,-10.382476,-0.025154009999999997,-0.00519051,-0.00718686,1746802325552384
0.371358,0.267306,-10.380084,-0.025287099999999996,-0.0058559599999999995,-0.0073199499999999995,1746802345527804
0.36298600000000003,0.2691,-10.391446,-0.02502092,-0.0039927,-0.00625523,1746802365503284
0.37614200000000003,0.273884,-10.392642,-0.02408929,-0.00505742,-0.00718686,1746802385478744
0.37076,0.277472,-10.374702000000001,-0.024222379999999998,-0.00505742,-0.00678759,1746802405454204
0.37375,0.27328600000000003,-10.380084,-0.023556929999999997,-0.005989049999999999,-0.00678759,1746802425429684
0.373152,0.27508,-10.39324,-0.023556929999999997,-0.0058559599999999995,-0.00678759,1746802445405244
0.369564,0.275678,-10.392044,-0.024355469999999997,-0.00519051,-0.00678759,1746802465380344
0.373152,0.27807,-10.380084,-0.02408929,-0.004924329999999999,-0.00678759,1746802485355784
0.383318,0.274482,-10.392044,-0.023823109999999998,-0.0047912399999999996,-0.007053769999999999,1746802505331344
0.369564,0.27328600000000003,-10.382476,-0.02462165,-0.004525059999999999,-0.00785231,1746802525306804
0.382122,0.267306,-10.379486,-0.02448856,-0.004391969999999999,-0.0079854,1746802545282124
0.387504,0.261924,-10.38128,-0.024355469999999997,-0.00425888,-0.007053769999999999,1746802565257624
0.38152400000000003,0.275678,-10.362742,-0.025154009999999997,-0.004391969999999999,-0.007453039999999999,1746802585233064
0.368966,0.26790400000000003,-10.416562,-0.023823109999999998,-0.004924329999999999,-0.007586129999999999,1746802605208344
0.374348,0.262522,-10.36633,-0.023823109999999998,-0.004391969999999999,-0.0079854,1746802625183684
0.371358,0.270296,-10.396230000000001,-0.023956199999999997,-0.004924329999999999,-0.00718686,1746802645159004
0.36179,0.260728,-10.383074,-0.02448856,-0.00505742,-0.00785231,1746802665134344
0.36836800000000003,0.270296,-10.39025,-0.024222379999999998,-0.00425888,-0.006521409999999999,1746802685109644
0.37614200000000003,0.275678,-10.390848,-0.023823109999999998,-0.00425888,-0.007719219999999999,1746802705084964
0.377338,0.285246,-10.4052,-0.02408929,-0.00572287,-0.008783939999999999,1746802725060344
0.37375,0.277472,-10.364536,-0.02448856,-0.0053235999999999995,-0.00891703,1746802745035704
0.374348,0.270894,-10.394436,-0.024222379999999998,-0.00505742,-0.00891703,1746802765011064
0.368966,0.270296,-10.356762,-0.02462165,-0.004525059999999999,-0.008118489999999999,1746802784986464
0.374946,0.260728,-10.408788,-0.02408929,-0.00505742,-0.007586129999999999,1746802804961504
0.38272,0.26611,-10.414768,-0.023556929999999997,-0.004525059999999999,-0.007719219999999999,1746802824936784
0.368966,0.275678,-10.396828,-0.023956199999999997,-0.0037265199999999997,-0.007586129999999999,1746802844912064
0.36836800000000003,0.27328600000000003,-10.398622,-0.024754739999999997,-0.004924329999999999,-0.007053769999999999,1746802864887124
0.366574,0.259532,-10.399818,-0.023556929999999997,-0.0053235999999999995,-0.006920679999999999,1746802884862304
0.371358,0.270296,-10.373506,-0.023823109999999998,-0.0053235999999999995,-0.00718686,1746802904837544
0.373152,0.275678,-10.386662,-0.02369002,-0.00572287,-0.008118489999999999,1746801925812744
0.366574,0.255346,-10.385466000000001,-0.024222379999999998,-0.0053235999999999995,-0.007453039999999999,1746801945788664
0.368966,0.259532,-10.406994000000001,-0.02462165,-0.00519051,-0.008118489999999999,1746801965764124
0.37973,0.26611,-10.36334,-0.024222379999999998,-0.00505742,-0.009050119999999998,1746801985739384
0.365378,0.255944,-10.390848,-0.023956199999999997,-0.00572287,-0.008783939999999999,1746802005714724
0.37674,0.270894,-10.385466000000001,-0.025553279999999998,-0.00505742,-0.0073199499999999995,1746802025690144
0.383318,0.25714,-10.390848,-0.024887829999999996,-0.005456689999999999,-0.00851776,1746802045665564
0.370162,0.267306,-10.403406,-0.024355469999999997,-0.0047912399999999996,-0.007453039999999999,1746802065640804
0.37076,0.261924,-10.384868,-0.024222379999999998,-0.00505742,-0.00785231,1746802085616004
0.382122,0.270894,-10.39025,-0.024355469999999997,-0.00505742,-0.007586129999999999,1746802105591284
0.38272,0.27508,-10.362742,-0.02369002,-0.0047912399999999996,-0.00785231,1746802125566684
0.37973,0.26790400000000003,-10.39324,-0.023956199999999997,-0.005456689999999999,-0.00825158,1746802145542004
0.358202,0.277472,-10.36633,-0.024355469999999997,-0.0053235999999999995,-0.007453039999999999,1746802165517104
0.363584,0.277472,-10.389652,-0.024887829999999996,-0.00519051,-0.00825158,1746802185492384
0.377338,0.257738,-10.380084,-0.024355469999999997,-0.0053235999999999995,-0.006920679999999999,1746802205467584
0.36478,0.26790400000000003,-10.368722,-0.023823109999999998,-0.0058559599999999995,-0.006654499999999999,1746802225442764
0.375544,0.27508,-10.390848,-0.02462165,-0.00505742,-0.0079854,1746802245418044
0.36836800000000003,0.259532,-10.398024,-0.024355469999999997,-0.0047912399999999996,-0.0079854,1746802265393364
0.370162,0.269698,-10.389054,-0.024754739999999997,-0.00505742,-0.00851776,1746802285368644
0.373152,0.28106,-10.371114,-0.02408929,-0.0058559599999999995,-0.0073199499999999995,1746802305343904
0.379132,0.274482,-10.386662,-0.02462165,-0.004525059999999999,-0.007453039999999999,1746802325319264
0.37973,0.285246,-10.384868,-0.02448856,-0.00412579,-0.00825158,1746802345294664
0.37614200000000003,0.280462,-10.38726,-0.023956199999999997,-0.00505742,-0.0073199499999999995,1746802365269884
0.389896,0.259532,-10.38726,-0.024222379999999998,-0.005589779999999999,-0.00851776,1746802385245184
0.36179,0.26790400000000003,-10.422542,-0.024222379999999998,-0.00519051,-0.00785231,1746802405220584
0.365378,0.27508,-10.38128,-0.023024569999999998,-0.0053235999999999995,-0.007586129999999999,1746802425195744
0.37973,0.27328600000000003,-10.365732,-0.024222379999999998,-0.00465815,-0.007586129999999999,1746802445171024
0.385112,0.280462,-10.385466000000001,-0.024887829999999996,-0.00505742,-0.007453039999999999,1746802465146284
0.373152,0.279864,-10.377692,-0.023956199999999997,-0.0047912399999999996,-0.00785231,1746802485121524
0.372554,0.25714,-10.41118,-0.023956199999999997,-0.004525059999999999,-0.00718686,1746802505096844
0.37614200000000003,0.269698,-10.37829,-0.023823109999999998,-0.00505742,-0.00718686,1746802525072064
0.373152,0.269698,-10.388456,-0.02329075,-0.0053235999999999995,-0.007586129999999999,1746802545047304
0.373152,0.256542,-10.411778,-0.02369002,-0.0053235999999999995,-0.00718686,1746802565022584
0.356408,0.278668,-10.394436,-0.024887829999999996,-0.005589779999999999,-0.00785231,1746802584996964
0.365976,0.260728,-10.380682,-0.024887829999999996,-0.004924329999999999,-0.00785231,1746802604972244
0.379132,0.26790400000000003,-10.38128,-0.023823109999999998,-0.004391969999999999,-0.007453039999999999,1746802624947484
0.383318,0.273884,-10.373506,-0.023556929999999997,-0.00465815,-0.00825158,1746802644922824
0.38152400000000003,0.282256,-10.374702000000001,-0.02408929,-0.00465815,-0.0073199499999999995,1746802664898024
0.37614200000000003,0.264914,-10.40221,-0.02369002,-0.0053235999999999995,-0.00718686,1746802684873064
0.383916,0.267306,-10.378888,-0.023823109999999998,-0.00572287,-0.007453039999999999,1746802704848184
0.371358,0.269698,-10.387858,-0.02329075,-0.00505742,-0.0073199499999999995,1746802724823644
0.3588,0.266708,-10.38128,-0.023423839999999998,-0.0058559599999999995,-0.007586129999999999,1746802744798864
0.373152,0.264316,-10.374104,-0.024355469999999997,-0.00505742,-0.008783939999999999,1746802764774344
0.36478,0.281658,-10.383074,-0.023823109999999998,-0.00425888,-0.0079854,1746802784749524
0.37674,0.26790400000000003,-10.380682,-0.02462165,-0.0053235999999999995,-0.007586129999999999,1746802804725664
0.387504,0.265512,-10.380682,-0.024887829999999996,-0.0047912399999999996,-0.00785231,1746802824701104
0.359398,0.27807,-10.386064,-0.02448856,-0.00465815,-0.008384669999999999,1746802844676324
0.361192,0.270894,-10.406994000000001,-0.024355469999999997,-0.00465815,-0.0073199499999999995,1746802864651664
0.365976,0.2691,-10.401014,-0.02329075,-0.0053235999999999995,-0.00678759,1746802884627124
0.374946,0.263718,-10.397426,-0.02369002,-0.004924329999999999,-0.00718686,1746802904602304
0.364182,0.26312,-10.387858,-0.02369002,-0.004924329999999999,-0.007719219999999999,1746802924577704
0.361192,0.268502,-10.375898,-0.024222379999999998,-0.00425888,-0.0079854,1746801945553004
0.369564,0.28405,-10.377692,-0.023823109999999998,-0.004391969999999999,-0.007586129999999999,1746801965528104
0.37375,0.276874,-10.383672,-0.023823109999999998,-0.0058559599999999995,-0.009050119999999998,1746801985503724
0.377338,0.27807,-10.383074,-0.024222379999999998,-0.00519051,-0.007053769999999999,1746802005479104
0.377338,0.276276,-10.3753,-0.024887829999999996,-0.00465815,-0.00785231,1746802025454904
0.374946,0.27807,-10.4052,-0.025154009999999997,-0.00519051,-0.0079854,1746802045430204
0.368966,0.279864,-10.386064,-0.02448856,-0.005456689999999999,-0.00785231,1746802065405504
0.371358,0.268502,-10.380682,-0.023823109999999998,-0.005456689999999999,-0.006920679999999999,1746802085380904
0.364182,0.275678,-10.397426,-0.02502092,-0.0047912399999999996,-0.00825158,1746802105356264
0.36777,0.262522,-10.38726,-0.02448856,-0.00519051,-0.00785231,1746802125331624
0.374946,0.279864,-10.40819,-0.024754739999999997,-0.005589779999999999,-0.007719219999999999,1746802145306884
0.395278,0.264914,-10.399818,-0.023823109999999998,-0.00505742,-0.007053769999999999,1746802165282144
0.371358,0.266708,-10.398024,-0.023556929999999997,-0.005589779999999999,-0.00785231,1746802185257404
0.379132,0.262522,-10.386662,-0.02369002,-0.0047912399999999996,-0.007053769999999999,1746802205232804
0.362388,0.279864,-10.392044,-0.02408929,-0.00505742,-0.007453039999999999,1746802225208164
0.374348,0.276276,-10.390848,-0.024355469999999997,-0.005456689999999999,-0.007453039999999999,1746802245183104
0.37076,0.276874,-10.376496,-0.023423839999999998,-0.00572287,-0.007586129999999999,1746802265158484
0.369564,0.266708,-10.395632,-0.02408929,-0.00572287,-0.00825158,1746802285133564
0.39468000000000003,0.268502,-10.394436,-0.024754739999999997,-0.00572287,-0.008783939999999999,1746802305108804
0.383916,0.275678,-10.400416,-0.02408929,-0.00572287,-0.00785231,1746802325084084
0.380328,0.275678,-10.383672,-0.02329075,-0.004924329999999999,-0.007719219999999999,1746802345059404
0.368966,0.26013000000000003,-10.394436,-0.023956199999999997,-0.00412579,-0.00865085,1746802365034444
0.372554,0.258934,-10.392642,-0.023823109999999998,-0.004924329999999999,-0.007053769999999999,1746802385009644
0.37614200000000003,0.261924,-10.404602,-0.02448856,-0.0053235999999999995,-0.007719219999999999,1746802404984664
0.38272,0.271492,-10.41118,-0.024355469999999997,-0.005989049999999999,-0.006920679999999999,1746802424959944
0.36836800000000003,0.270894,-10.383672,-0.024355469999999997,-0.00572287,-0.00718686,1746802444934484
0.36777,0.270296,-10.39922,-0.024222379999999998,-0.004525059999999999,-0.007586129999999999,1746802464909684
0.372554,0.262522,-10.406396,-0.024355469999999997,-0.005456689999999999,-0.007453039999999999,1746802484884964
0.359398,0.263718,-10.396828,-0.02329075,-0.004525059999999999,-0.008118489999999999,1746802504860144
0.371358,0.276276,-10.399818,-0.02408929,-0.004525059999999999,-0.0073199499999999995,1746802524835424
0.360594,0.272688,-10.383672,-0.023423839999999998,-0.00425888,-0.008118489999999999,1746802544810724
0.37375,0.265512,-10.359752,-0.02369002,-0.00519051,-0.0073199499999999995,1746802564786004
0.365378,0.269698,-10.415366,-0.02369002,-0.0047912399999999996,-0.007453039999999999,1746802584761344
0.360594,0.263718,-10.390848,-0.023956199999999997,-0.005456689999999999,-0.007453039999999999,1746802604736684
0.370162,0.270894,-10.394436,-0.025154009999999997,-0.00505742,-0.0079854,1746802624711544
0.383318,0.268502,-10.391446,-0.024222379999999998,-0.004924329999999999,-0.00678759,1746802644686804
0.36777,0.27807,-10.378888,-0.023556929999999997,-0.00465815,-0.00718686,1746802664661424
0.37674,0.274482,-10.393838,-0.023556929999999997,-0.00505742,-0.007586129999999999,1746802684636584
0.389896,0.272688,-10.413572,-0.024887829999999996,-0.00572287,-0.00718686,1746802704611944
0.37375,0.288834,-10.40819,-0.02369002,-0.005456689999999999,-0.007453039999999999,1746802724587144
0.40006200000000003,0.27209,-10.387858,-0.023024569999999998,-0.00465815,-0.006920679999999999,1746802744562404
0.372554,0.260728,-10.38726,-0.024355469999999997,-0.00519051,-0.0073199499999999995,1746802764537724
0.371956,0.26790400000000003,-10.396230000000001,-0.02369002,-0.006521409999999999,-0.007453039999999999,1746802784513044
0.351624,0.258934,-10.377094,-0.023823109999999998,-0.004525059999999999,-0.008118489999999999,1746802804488344
0.371358,0.257738,-10.401014,-0.023157659999999997,-0.00572287,-0.00718686,1746802824463764
0.368966,0.270296,-10.369918,-0.02448856,-0.0058559599999999995,-0.0073199499999999995,1746802844439004
0.362388,0.285246,-10.386064,-0.02448856,-0.004525059999999999,-0.00865085,1746802864414204
0.383916,0.26312,-10.398024,-0.024887829999999996,-0.00465815,-0.00785231,1746802884389524
0.37375,0.2691,-10.404004,-0.024754739999999997,-0.00519051,-0.006920679999999999,1746802904364804
0.372554,0.263718,-10.389652,-0.02408929,-0.00572287,-0.008118489999999999,1746802924340144
0.36179,0.264914,-10.39324,-0.025287099999999996,-0.00505742,-0.007719219999999999,1746801945315484
0.357604,0.262522,-10.368722,-0.025553279999999998,-0.00519051,-0.00718686,1746801965290884
0.377936,0.26611,-10.406396,-0.024887829999999996,-0.004391969999999999,-0.006920679999999999,1746801985266264
0.37375,0.271492,-10.396230000000001,-0.024887829999999996,-0.00412579,-0.007586129999999999,1746802005241584
0.384514,0.258934,-10.39922,-0.023823109999999998,-0.0047912399999999996,-0.0073199499999999995,1746802025216904
0.36179,0.270296,-10.394436,-0.024222379999999998,-0.00425888,-0.007053769999999999,1746802045192184
0.37674,0.265512,-10.400416,-0.023157659999999997,-0.004525059999999999,-0.0079854,1746802065167504
0.367172,0.275678,-10.399818,-0.02448856,-0.00505742,-0.0073199499999999995,1746802085142824
0.374348,0.270296,-10.39324,-0.02369002,-0.00519051,-0.006920679999999999,1746802105118204
0.371358,0.26790400000000003,-10.384868,-0.024222379999999998,-0.00572287,-0.00718686,1746802125093564
0.359398,0.288834,-10.386662,-0.02462165,-0.0053235999999999995,-0.008384669999999999,1746802145068924
0.359996,0.270296,-10.382476,-0.024222379999999998,-0.005589779999999999,-0.007719219999999999,1746802165044144
0.365976,0.275678,-10.363938000000001,-0.02542019,-0.00412579,-0.00785231,1746802185019524
0.371956,0.276874,-10.377692,-0.023556929999999997,-0.004525059999999999,-0.007453039999999999,1746802204994784
0.370162,0.27508,-10.392642,-0.02408929,-0.00505742,-0.00718686,1746802224970144
0.372554,0.25474800000000003,-10.394436,-0.02462165,-0.0053235999999999995,-0.008384669999999999,1746802244945464
0.37674,0.259532,-10.392044,-0.023956199999999997,-0.005589779999999999,-0.00825158,1746802264920804
0.360594,0.265512,-10.396230000000001,-0.023823109999999998,-0.005589779999999999,-0.007053769999999999,1746802284896144
0.366574,0.264316,-10.37829,-0.023823109999999998,-0.00465815,-0.006920679999999999,1746802304871484
0.365378,0.270296,-10.401612,-0.024222379999999998,-0.005456689999999999,-0.007453039999999999,1746802324846824
0.3588,0.26312,-10.396230000000001,-0.02462165,-0.005589779999999999,-0.007586129999999999,1746802344822164
0.374348,0.250562,-10.377094,-0.02448856,-0.005456689999999999,-0.006920679999999999,1746802364797504
0.369564,0.26611,-10.392044,-0.024222379999999998,-0.00519051,-0.00825158,1746802384772924
0.36298600000000003,0.266708,-10.38427,-0.024222379999999998,-0.00505742,-0.008384669999999999,1746802404748244
0.366574,0.27508,-10.391446,-0.024222379999999998,-0.0037265199999999997,-0.00851776,1746802424723664
0.37375,0.268502,-10.394436,-0.02369002,-0.00412579,-0.007053769999999999,1746802444699044
0.36836800000000003,0.260728,-10.385466000000001,-0.02448856,-0.00425888,-0.007719219999999999,1746802464674264
0.379132,0.25415,-10.40819,-0.02408929,-0.004391969999999999,-0.007586129999999999,1746802484649684
0.386308,0.258934,-10.36334,-0.025154009999999997,-0.00412579,-0.00785231,1746802504625084
0.37076,0.267306,-10.39025,-0.02542019,-0.004391969999999999,-0.007453039999999999,1746802524600384
0.379132,0.252356,-10.367526,-0.02462165,-0.00425888,-0.00678759,1746802544575744
0.36777,0.267306,-10.411778,-0.024222379999999998,-0.0047912399999999996,-0.00825158,1746802564551064
0.380926,0.270894,-10.389054,-0.024222379999999998,-0.00519051,-0.00865085,1746802584526464
0.372554,0.270296,-10.382476,-0.024754739999999997,-0.00505742,-0.00825158,1746802604501764
0.373152,0.27209,-10.377094,-0.02408929,-0.005589779999999999,-0.0079854,1746802624477064
0.380328,0.269698,-10.386064,-0.024355469999999997,-0.005456689999999999,-0.007453039999999999,1746802644452384
0.369564,0.269698,-10.39025,-0.02369002,-0.0053235999999999995,-0.0073199499999999995,1746802664427864
0.38571,0.258336,-10.400416,-0.024222379999999998,-0.00465815,-0.00785231,1746802684403284
0.359996,0.271492,-10.39025,-0.02462165,-0.004924329999999999,-0.00718686,1746802704378664
0.365976,0.266708,-10.399818,-0.02408929,-0.00505742,-0.006388319999999999,1746802724354064
0.380328,0.285246,-10.398622,-0.02369002,-0.00412579,-0.007586129999999999,1746802744329344
0.387504,0.269698,-10.393838,-0.02448856,-0.0047912399999999996,-0.007453039999999999,1746802764304724
0.365976,0.258934,-10.383074,-0.02408929,-0.004525059999999999,-0.008384669999999999,1746802804255564
0.364182,0.272688,-10.391446,-0.024754739999999997,-0.005456689999999999,-0.006920679999999999,1746802824230824
0.369564,0.264914,-10.380084,-0.024887829999999996,-0.005589779999999999,-0.007719219999999999,1746802844206144
0.392288,0.264316,-10.393838,-0.02408929,-0.00572287,-0.00785231,1746802864181484
0.383916,0.266708,-10.374702000000001,-0.024355469999999997,-0.00519051,-0.00785231,1746802884156804
0.37375,0.265512,-10.382476,-0.023956199999999997,-0.004391969999999999,-0.0073199499999999995,1746802904132184
0.374946,0.274482,-10.389652,-0.024754739999999997,-0.004924329999999999,-0.007719219999999999,1746802924107604
0.377338,0.28106,-10.39324,-0.024355469999999997,-0.00412579,-0.007053769999999999,1746801945082964
0.384514,0.276874,-10.392642,-0.024754739999999997,-0.004525059999999999,-0.00718686,1746801965058484
0.374946,0.26611,-10.395034,-0.02448856,-0.00505742,-0.00718686,1746801985033824
0.382122,0.271492,-10.39324,-0.02369002,-0.004924329999999999,-0.007719219999999999,1746802005009144
0.36777,0.281658,-10.384868,-0.024222379999999998,-0.00519051,-0.006654499999999999,1746802024984464
0.380328,0.26312,-10.397426,-0.02502092,-0.004391969999999999,-0.007053769999999999,1746802044959804
0.386906,0.26013000000000003,-10.411778,-0.02502092,-0.004391969999999999,-0.007719219999999999,1746802064935104
0.371358,0.278668,-10.38427,-0.023823109999999998,-0.00465815,-0.00678759,1746802084910464
0.363584,0.260728,-10.36633,-0.02329075,-0.00465815,-0.00891703,1746802104885864
0.382122,0.257738,-10.402808,-0.023823109999999998,-0.004525059999999999,-0.008783939999999999,1746802124861164
0.377338,0.270894,-10.384868,-0.02448856,-0.004525059999999999,-0.006920679999999999,1746802144836504
0.37674,0.268502,-10.406396,-0.02369002,-0.0038596099999999994,-0.00718686,1746802164811864
0.368966,0.273884,-10.384868,-0.02369002,-0.00465815,-0.007453039999999999,1746802184787204
0.367172,0.279864,-10.382476,-0.023024569999999998,-0.005456689999999999,-0.007719219999999999,1746802204762584
0.365976,0.265512,-10.401014,-0.02369002,-0.00465815,-0.00718686,1746802224737864
0.374348,0.272688,-10.386064,-0.02462165,-0.004525059999999999,-0.0079854,1746802244713204
0.37614200000000003,0.271492,-10.401612,-0.02462165,-0.00519051,-0.00851776,1746802264688564
0.38272,0.267306,-10.38726,-0.023556929999999997,-0.0058559599999999995,-0.00865085,1746802284663944
0.374946,0.267306,-10.379486,-0.02369002,-0.0053235999999999995,-0.00785231,1746802304639244
0.359398,0.282854,-10.399818,-0.02369002,-0.005456689999999999,-0.008384669999999999,1746802324614544
0.361192,0.2691,-10.382476,-0.023423839999999998,-0.0053235999999999995,-0.00718686,1746802344589824
0.36777,0.265512,-10.396230000000001,-0.02369002,-0.00505742,-0.007586129999999999,1746802364565084
0.365976,0.26013000000000003,-10.37231,-0.023423839999999998,-0.004924329999999999,-0.00678759,1746802384540504
0.373152,0.261326,-10.381878,-0.024355469999999997,-0.00625523,-0.007719219999999999,1746802404515824
0.374946,0.275678,-10.406396,-0.02408929,-0.00519051,-0.0079854,1746802424491064
0.375544,0.282256,-10.398024,-0.02448856,-0.00519051,-0.008384669999999999,1746802444466364
0.374946,0.274482,-10.380084,-0.024222379999999998,-0.0058559599999999995,-0.007586129999999999,1746802464441744
0.372554,0.258336,-10.383672,-0.023556929999999997,-0.004391969999999999,-0.00678759,1746802484417124
0.365976,0.27508,-10.400416,-0.023956199999999997,-0.005456689999999999,-0.00785231,1746802504392484
0.389896,0.28405,-10.38427,-0.02448856,-0.00519051,-0.007719219999999999,1746802524367924
0.358202,0.25714,-10.38726,-0.02448856,-0.005589779999999999,-0.0079854,1746802544343244
0.379132,0.271492,-10.375898,-0.023956199999999997,-0.004924329999999999,-0.00785231,1746802564318524
0.383916,0.251758,-10.372908,-0.024887829999999996,-0.0053235999999999995,-0.0073199499999999995,1746802584293824
0.377936,0.273884,-10.377692,-0.02369002,-0.005589779999999999,-0.008384669999999999,1746802604269124
0.372554,0.268502,-10.380084,-0.024222379999999998,-0.00465815,-0.007586129999999999,1746802624244424
0.374348,0.272688,-10.389652,-0.02448856,-0.00519051,-0.00865085,1746802644219764
0.392288,0.259532,-10.396828,-0.02462165,-0.0047912399999999996,-0.007586129999999999,1746802664195164
0.374348,0.270894,-10.387858,-0.023556929999999997,-0.0047912399999999996,-0.007053769999999999,1746802684170484
0.37375,0.267306,-10.396828,-0.023423839999999998,-0.004924329999999999,-0.00825158,1746802704145784
0.370162,0.272688,-10.38128,-0.02289148,-0.00425888,-0.007719219999999999,1746802724121084
0.369564,0.275678,-10.390848,-0.02369002,-0.00425888,-0.00851776,1746802744096404
0.38272,0.276874,-10.389054,-0.024887829999999996,-0.0053235999999999995,-0.00825158,1746802764071804
0.365378,0.260728,-10.393838,-0.024222379999999998,-0.004525059999999999,-0.007719219999999999,1746802784047084
0.388102,0.26611,-10.388456,-0.024222379999999998,-0.004924329999999999,-0.007053769999999999,1746802804022424
0.37614200000000003,0.26790400000000003,-10.399818,-0.02462165,-0.005589779999999999,-0.007453039999999999,1746802823997784
0.374946,0.258934,-10.393838,-0.023956199999999997,-0.0053235999999999995,-0.0073199499999999995,1746802843973084
0.373152,0.261924,-10.405798,-0.02448856,-0.00572287,-0.007453039999999999,1746802863948404
0.383318,0.273884,-10.374104,-0.02502092,-0.0053235999999999995,-0.0073199499999999995,1746802883923724
0.368966,0.255944,-10.394436,-0.024355469999999997,-0.0053235999999999995,-0.00825158,1746802903899044
0.380926,0.266708,-10.39324,-0.023956199999999997,-0.00572287,-0.008384669999999999,1746802923874504
0.365976,0.28106,-10.380682,-0.024355469999999997,-0.005589779999999999,-0.00785231,1746801944849784
0.372554,0.26312,-10.381878,-0.024222379999999998,-0.005589779999999999,-0.007586129999999999,1746801964825144
0.374946,0.269698,-10.368722,-0.024355469999999997,-0.00519051,-0.00825158,1746801984800504
0.374348,0.279864,-10.36035,-0.023956199999999997,-0.00505742,-0.0079854,1746802004775824
0.36777,0.262522,-10.4052,-0.023823109999999998,-0.00612214,-0.00825158,1746802024751164
0.374348,0.274482,-10.399818,-0.02448856,-0.0047912399999999996,-0.00998175,1746802044726484
0.385112,0.27807,-10.384868,-0.024222379999999998,-0.0053235999999999995,-0.008384669999999999,1746802064701824
0.366574,0.274482,-10.408788,-0.02502092,-0.004924329999999999,-0.00891703,1746802084677164
0.38571,0.27508,-10.38427,-0.024355469999999997,-0.00465815,-0.007719219999999999,1746802104652564
0.378534,0.26312,-10.38128,-0.02448856,-0.004391969999999999,-0.007053769999999999,1746802124627924
0.367172,0.251758,-10.38726,-0.02408929,-0.004391969999999999,-0.00785231,1746802144603224
0.364182,0.270894,-10.394436,-0.02369002,-0.004525059999999999,-0.007586129999999999,1746802164578464
0.368966,0.260728,-10.395632,-0.02369002,-0.004924329999999999,-0.00718686,1746802184553764
0.37614200000000003,0.283452,-10.389652,-0.023956199999999997,-0.0047912399999999996,-0.007719219999999999,1746802204529224
0.378534,0.264316,-10.361546,-0.023823109999999998,-0.004525059999999999,-0.0073199499999999995,1746802224504604
0.377338,0.270296,-10.393838,-0.024222379999999998,-0.00519051,-0.007453039999999999,1746802244479864
0.372554,0.27807,-10.377692,-0.023956199999999997,-0.005589779999999999,-0.007453039999999999,1746802264455244
0.369564,0.266708,-10.407592,-0.023956199999999997,-0.00572287,-0.007586129999999999,1746802284430564
0.37375,0.265512,-10.404602,-0.02329075,-0.00519051,-0.0073199499999999995,1746802304405884
0.37674,0.276276,-10.396230000000001,-0.023956199999999997,-0.0053235999999999995,-0.00718686,1746802324381404
0.392288,0.261326,-10.403406,-0.024355469999999997,-0.00572287,-0.00785231,1746802344356804
0.37375,0.264914,-10.4052,-0.024222379999999998,-0.00505742,-0.008384669999999999,1746802364332184
0.375544,0.274482,-10.396230000000001,-0.024222379999999998,-0.00505742,-0.00851776,1746802384307584
0.36179,0.265512,-10.394436,-0.02448856,-0.005589779999999999,-0.008384669999999999,1746802404282884
0.372554,0.26790400000000003,-10.389054,-0.02408929,-0.004525059999999999,-0.00785231,1746802424258364
0.364182,0.255944,-10.401612,-0.02448856,-0.004525059999999999,-0.00785231,1746802444233784
0.365976,0.265512,-10.376496,-0.023556929999999997,-0.004391969999999999,-0.007719219999999999,1746802464209104
0.373152,0.274482,-10.398024,-0.023423839999999998,-0.006388319999999999,-0.00678759,1746802484184424
0.35282,0.276874,-10.401014,-0.023956199999999997,-0.005456689999999999,-0.0073199499999999995,1746802504159784
0.365976,0.26611,-10.386662,-0.023423839999999998,-0.004924329999999999,-0.007453039999999999,1746802524135124
0.377338,0.276874,-10.384868,-0.024355469999999997,-0.00572287,-0.007453039999999999,1746802544110524
0.385112,0.273884,-10.3753,-0.02369002,-0.00519051,-0.007586129999999999,1746802564085804
0.384514,0.265512,-10.395632,-0.02369002,-0.00465815,-0.008118489999999999,1746802584061124
0.374946,0.269698,-10.399818,-0.023956199999999997,-0.00572287,-0.008384669999999999,1746802604036464
0.366574,0.275678,-10.404602,-0.024222379999999998,-0.00519051,-0.00678759,1746802624011884
0.374348,0.270296,-10.396230000000001,-0.02462165,-0.00425888,-0.00678759,1746802643987304
0.380328,0.271492,-10.37829,-0.023556929999999997,-0.005456689999999999,-0.0073199499999999995,1746802663962564
0.370162,0.281658,-10.367526,-0.024887829999999996,-0.00519051,-0.0079854,1746802683937924
0.37973,0.278668,-10.383074,-0.02448856,-0.004924329999999999,-0.00785231,1746802703913364
0.367172,0.271492,-10.384868,-0.023823109999999998,-0.00505742,-0.00718686,1746802723888744
0.38272,0.272688,-10.409386,-0.023956199999999997,-0.0047912399999999996,-0.00718686,1746802743863964
0.37076,0.258934,-10.38726,-0.02502092,-0.0047912399999999996,-0.008118489999999999,1746802763839324
0.374348,0.26790400000000003,-10.395034,-0.025154009999999997,-0.00505742,-0.006920679999999999,1746802783814684
0.38152400000000003,0.263718,-10.404602,-0.02462165,-0.00519051,-0.0073199499999999995,1746802803790044
0.37674,0.265512,-10.402808,-0.02408929,-0.0047912399999999996,-0.007586129999999999,1746802823765404
0.374348,0.267306,-10.396230000000001,-0.024222379999999998,-0.004924329999999999,-0.00785231,1746802843740544
0.372554,0.265512,-10.395034,-0.025287099999999996,-0.00572287,-0.00785231,1746802863716004
0.363584,0.27328600000000003,-10.392642,-0.024887829999999996,-0.00572287,-0.007053769999999999,1746802883691344
0.360594,0.264914,-10.405798,-0.02448856,-0.004924329999999999,-0.007053769999999999,1746802903666624
0.37375,0.26611,-10.387858,-0.024222379999999998,-0.005589779999999999,-0.0073199499999999995,1746802923642024
0.394082,0.275678,-10.386064,-0.024887829999999996,-0.004924329999999999,-0.007586129999999999,1746801944617444
0.37375,0.270296,-10.383672,-0.024222379999999998,-0.0047912399999999996,-0.00785231,1746801964592604
0.369564,0.273884,-10.375898,-0.025686369999999997,-0.004525059999999999,-0.00718686,1746801984567944
0.372554,0.26611,-10.387858,-0.02502092,-0.004525059999999999,-0.007719219999999999,1746802004543304
0.373152,0.271492,-10.386662,-0.02448856,-0.004924329999999999,-0.00785231,1746802024518604
0.36777,0.270894,-10.40819,-0.023556929999999997,-0.00505742,-0.0073199499999999995,1746802044493944
0.370162,0.252954,-10.395034,-0.023423839999999998,-0.005456689999999999,-0.00825158,1746802064469284
0.38152400000000003,0.26611,-10.37829,-0.023423839999999998,-0.0047912399999999996,-0.007453039999999999,1746802084444564
0.37076,0.262522,-10.398024,-0.024222379999999998,-0.005456689999999999,-0.007453039999999999,1746802104419924
0.372554,0.269698,-10.392642,-0.02369002,-0.00519051,-0.007053769999999999,1746802124395304
0.377936,0.27328600000000003,-10.387858,-0.023956199999999997,-0.00505742,-0.0079854,1746802144370624
0.374348,0.265512,-10.392642,-0.02448856,-0.005456689999999999,-0.0079854,1746802164346124
0.374348,0.259532,-10.380084,-0.02329075,-0.0058559599999999995,-0.008118489999999999,1746802184321484
0.373152,0.260728,-10.412974,-0.024754739999999997,-0.00505742,-0.007586129999999999,1746802204296844
0.380926,0.26013000000000003,-10.381878,-0.02408929,-0.004924329999999999,-0.00825158,1746802224272204
0.362388,0.263718,-10.388456,-0.024887829999999996,-0.00505742,-0.007719219999999999,1746802244247524
0.383916,0.281658,-10.381878,-0.023956199999999997,-0.00519051,-0.007586129999999999,1746802264222884
0.36836800000000003,0.283452,-10.383074,-0.023956199999999997,-0.00612214,-0.0073199499999999995,1746802284198224
0.37076,0.261326,-10.392044,-0.02408929,-0.005456689999999999,-0.006654499999999999,1746802304173664
0.38152400000000003,0.275678,-10.396230000000001,-0.02408929,-0.0047912399999999996,-0.007053769999999999,1746802324149004
0.377338,0.26312,-10.376496,-0.02448856,-0.00519051,-0.00785231,1746802344124224
0.38272,0.265512,-10.380084,-0.02408929,-0.00572287,-0.0093163,1746802364099524
0.370162,0.271492,-10.40221,-0.02462165,-0.0047912399999999996,-0.007053769999999999,1746802384074924
0.362388,0.270296,-10.406396,-0.02408929,-0.004924329999999999,-0.006388319999999999,1746802404050304
0.36298600000000003,0.267306,-10.400416,-0.02502092,-0.0058559599999999995,-0.007453039999999999,1746802424025684
0.372554,0.276874,-10.39324,-0.02462165,-0.005589779999999999,-0.00718686,1746802444001084
0.384514,0.276276,-10.371114,-0.02408929,-0.0053235999999999995,-0.0073199499999999995,1746802463976404
0.377338,0.270894,-10.396828,-0.024222379999999998,-0.004525059999999999,-0.008118489999999999,1746802483951804
0.364182,0.263718,-10.401014,-0.02408929,-0.00505742,-0.008118489999999999,1746802503927004
0.375544,0.275678,-10.391446,-0.02448856,-0.00465815,-0.0073199499999999995,1746802523902384
0.37375,0.279266,-10.395034,-0.02448856,-0.005589779999999999,-0.007453039999999999,1746802543877784
0.370162,0.2691,-10.391446,-0.025686369999999997,-0.005589779999999999,-0.006920679999999999,1746802563853124
0.361192,0.276874,-10.387858,-0.02502092,-0.00465815,-0.007053769999999999,1746802583828344
0.372554,0.27209,-10.379486,-0.023823109999999998,-0.00412579,-0.0079854,1746802603803764
0.368966,0.288834,-10.389652,-0.023823109999999998,-0.004525059999999999,-0.006920679999999999,1746802623779084
0.37614200000000003,0.270296,-10.391446,-0.02448856,-0.00465815,-0.006920679999999999,1746802643754424
0.374348,0.272688,-10.37829,-0.024222379999999998,-0.005589779999999999,-0.007719219999999999,1746802663729864
0.359398,0.271492,-10.406396,-0.024222379999999998,-0.00519051,-0.0073199499999999995,1746802683705204
0.368966,0.26790400000000003,-10.37829,-0.023423839999999998,-0.006521409999999999,-0.007453039999999999,1746802703680404
0.378534,0.273884,-10.376496,-0.023157659999999997,-0.006388319999999999,-0.0079854,1746802723655804
0.369564,0.257738,-10.38427,-0.023823109999999998,-0.005456689999999999,-0.007586129999999999,1746802743631144
0.375544,0.274482,-10.365732,-0.02448856,-0.005456689999999999,-0.007586129999999999,1746802763606564
0.380926,0.269698,-10.371712,-0.023956199999999997,-0.004525059999999999,-0.007053769999999999,1746802783582004
0.383916,0.28106,-10.39025,-0.023956199999999997,-0.00425888,-0.006388319999999999,1746802803557204
0.373152,0.278668,-10.41417,-0.02369002,-0.00465815,-0.00678759,1746802823532504
0.380328,0.26790400000000003,-10.398622,-0.024754739999999997,-0.004924329999999999,-0.006654499999999999,1746802843507704
0.38152400000000003,0.271492,-10.374104,-0.02369002,-0.004391969999999999,-0.007053769999999999,1746802863483104
0.365378,0.256542,-10.396230000000001,-0.024754739999999997,-0.00412579,-0.00785231,1746802883458504
0.368966,0.269698,-10.417758000000001,-0.023956199999999997,-0.0047912399999999996,-0.006920679999999999,1746802903433764
0.366574,0.267306,-10.382476,-0.023556929999999997,-0.00519051,-0.007719219999999999,1746802923409084
0.37674,0.266708,-10.378888,-0.023157659999999997,-0.0047912399999999996,-0.008118489999999999,1746801944384344
0.37674,0.275678,-10.380682,-0.023823109999999998,-0.00412579,-0.00825158,1746801964359844
0.359398,0.277472,-10.36932,-0.022758389999999996,-0.00465815,-0.008118489999999999,1746801984335264
0.365976,0.276276,-10.362742,-0.02329075,-0.00519051,-0.00891703,1746802004310704
0.374946,0.258934,-10.3753,-0.023956199999999997,-0.00505742,-0.0073199499999999995,1746802024286084
0.38571,0.276276,-10.383672,-0.02369002,-0.00505742,-0.00851776,1746802044261404
0.380328,0.26013000000000003,-10.38427,-0.024355469999999997,-0.00465815,-0.0073199499999999995,1746802064236724
0.364182,0.268502,-10.420748,-0.023823109999999998,-0.005589779999999999,-0.006920679999999999,1746802084211944
0.36777,0.269698,-10.412376,-0.02408929,-0.0058559599999999995,-0.00825158,1746802104187424
0.36478,0.28106,-10.396230000000001,-0.024887829999999996,-0.005989049999999999,-0.0079854,1746802124162804
0.360594,0.28106,-10.4052,-0.023823109999999998,-0.005989049999999999,-0.00825158,1746802144138184
0.364182,0.25415,-10.418356,-0.023423839999999998,-0.004924329999999999,-0.0079854,1746802164113464
0.38571,0.283452,-10.365134,-0.023556929999999997,-0.0058559599999999995,-0.00625523,1746802184088804
0.366574,0.2691,-10.387858,-0.02329075,-0.004924329999999999,-0.00785231,1746802204064204
0.380328,0.262522,-10.410582,-0.023556929999999997,-0.00505742,-0.00785231,1746802224039624
0.377338,0.282854,-10.383672,-0.024222379999999998,-0.005989049999999999,-0.0079854,1746802244014924
0.37614200000000003,0.265512,-10.369918,-0.024222379999999998,-0.00519051,-0.0079854,1746802263990284
0.380328,0.280462,-10.390848,-0.024222379999999998,-0.0031941599999999997,-0.007453039999999999,1746802283965604
0.377936,0.274482,-10.39922,-0.023423839999999998,-0.0039927,-0.008118489999999999,1746802303940804
0.36777,0.262522,-10.386064,-0.023956199999999997,-0.005589779999999999,-0.00718686,1746802323916284
0.37375,0.270296,-10.397426,-0.023556929999999997,-0.004924329999999999,-0.00718686,1746802343891744
0.371956,0.276874,-10.37829,-0.023556929999999997,-0.00519051,-0.00785231,1746802363867044
0.366574,0.2691,-10.389652,-0.02408929,-0.0047912399999999996,-0.007586129999999999,1746802383842324
0.371358,0.261924,-10.392044,-0.024222379999999998,-0.00505742,-0.00785231,1746802403817584
0.365378,0.268502,-10.398622,-0.023423839999999998,-0.004924329999999999,-0.006920679999999999,1746802423792944
0.375544,0.264914,-10.387858,-0.024754739999999997,-0.004525059999999999,-0.007053769999999999,1746802443768384
0.364182,0.270894,-10.396230000000001,-0.024355469999999997,-0.00412579,-0.0079854,1746802463743724
0.36836800000000003,0.28405,-10.39324,-0.023556929999999997,-0.004525059999999999,-0.00851776,1746802483719204
0.36836800000000003,0.285246,-10.377692,-0.02329075,-0.005456689999999999,-0.006920679999999999,1746802503694524
0.357006,0.277472,-10.389652,-0.023556929999999997,-0.00425888,-0.007719219999999999,1746802523669924
0.352222,0.273884,-10.428522000000001,-0.024222379999999998,-0.004391969999999999,-0.00825158,1746802543645284
0.371956,0.259532,-10.384868,-0.02448856,-0.004525059999999999,-0.008118489999999999,1746802563620564
0.380926,0.266708,-10.37829,-0.023956199999999997,-0.0053235999999999995,-0.007453039999999999,1746802583595884
0.36777,0.27209,-10.389054,-0.023556929999999997,-0.005456689999999999,-0.0073199499999999995,1746802603571024
0.380328,0.278668,-10.414768,-0.024222379999999998,-0.005456689999999999,-0.007719219999999999,1746802623546344
0.375544,0.28644200000000003,-10.393838,-0.02408929,-0.00425888,-0.008118489999999999,1746802643521644
0.372554,0.26790400000000003,-10.394436,-0.024222379999999998,-0.004525059999999999,-0.00718686,1746802663496964
0.371956,0.28106,-10.396230000000001,-0.024754739999999997,-0.004924329999999999,-0.008384669999999999,1746802683472304
0.377936,0.278668,-10.42613,-0.02448856,-0.004525059999999999,-0.008118489999999999,1746802703447624
0.37375,0.27508,-10.404602,-0.024222379999999998,-0.0047912399999999996,-0.00718686,1746802723423024
0.37973,0.26312,-10.387858,-0.024355469999999997,-0.0047912399999999996,-0.00718686,1746802743398384
0.380328,0.274482,-10.38128,-0.023157659999999997,-0.00519051,-0.007586129999999999,1746802763373724
0.355212,0.2691,-10.395034,-0.023823109999999998,-0.004924329999999999,-0.007453039999999999,1746802783349044
0.368966,0.27209,-10.374702000000001,-0.02369002,-0.0053235999999999995,-0.007719219999999999,1746802803324364
0.36836800000000003,0.261924,-10.377094,-0.02448856,-0.0039927,-0.008783939999999999,1746802823299684
0.37076,0.264316,-10.402808,-0.024222379999999998,-0.004525059999999999,-0.00785231,1746802843275104
0.36836800000000003,0.263718,-10.398024,-0.024754739999999997,-0.0047912399999999996,-0.00825158,1746802863250424
0.370162,0.276874,-10.39324,-0.02462165,-0.00465815,-0.008384669999999999,1746802883225764
0.380926,0.27508,-10.377692,-0.023157659999999997,-0.004525059999999999,-0.00785231,1746802903201044
0.377936,0.271492,-10.401612,-0.02408929,-0.004924329999999999,-0.0073199499999999995,1746802923176364
0.383916,0.2691,-10.38427,-0.024355469999999997,-0.00425888,-0.007453039999999999,1746801944151844
0.386906,0.264316,-10.374104,-0.023956199999999997,-0.0039927,-0.007586129999999999,1746801964127104
0.378534,0.268502,-10.36633,-0.02329075,-0.00519051,-0.007053769999999999,1746801984102424
0.36836800000000003,0.269698,-10.39025,-0.023823109999999998,-0.0058559599999999995,-0.007453039999999999,1746802004077764
0.371358,0.277472,-10.396828,-0.024222379999999998,-0.005589779999999999,-0.007453039999999999,1746802024053124
0.368966,0.280462,-10.41417,-0.02502092,-0.004924329999999999,-0.0073199499999999995,1746802044028604
0.359996,0.275678,-10.392642,-0.024222379999999998,-0.0047912399999999996,-0.00718686,1746802064003944
0.362388,0.263718,-10.388456,-0.024222379999999998,-0.00465815,-0.00785231,1746802083979284
0.368966,0.26611,-10.393838,-0.024222379999999998,-0.00425888,-0.0079854,1746802103954684
0.366574,0.274482,-10.367526,-0.02408929,-0.00519051,-0.00851776,1746802123929944
0.379132,0.267306,-10.377094,-0.023956199999999997,-0.00505742,-0.0073199499999999995,1746802143905304
0.371956,0.257738,-10.415964,-0.025154009999999997,-0.005989049999999999,-0.0073199499999999995,1746802163880584
0.380926,0.273884,-10.392044,-0.02502092,-0.005456689999999999,-0.007719219999999999,1746802183856124
0.365378,0.275678,-10.381878,-0.024222379999999998,-0.005456689999999999,-0.006920679999999999,1746802203831644
0.361192,0.267306,-10.362742,-0.02408929,-0.004391969999999999,-0.007586129999999999,1746802223807084
0.36836800000000003,0.271492,-10.372908,-0.02408929,-0.00519051,-0.007586129999999999,1746802243782484
0.378534,0.260728,-10.38128,-0.02448856,-0.00505742,-0.0079854,1746802263757784
0.35581,0.26611,-10.397426,-0.02462165,-0.0038596099999999994,-0.00825158,1746802283733024
0.360594,0.27807,-10.40221,-0.024222379999999998,-0.00425888,-0.007586129999999999,1746802303708424
0.37076,0.26611,-10.40221,-0.02408929,-0.005589779999999999,-0.0079854,1746802323683804
0.371358,0.271492,-10.406994000000001,-0.02448856,-0.00465815,-0.007586129999999999,1746802343659164
0.37076,0.26611,-10.370516,-0.023956199999999997,-0.004391969999999999,-0.007453039999999999,1746802363634564
0.36298600000000003,0.268502,-10.358556,-0.023823109999999998,-0.00572287,-0.00718686,1746802383609744
0.367172,0.269698,-10.374702000000001,-0.024754739999999997,-0.0047912399999999996,-0.00785231,1746802403585204
0.383916,0.280462,-10.4052,-0.02502092,-0.00519051,-0.0079854,1746802423560524
0.36179,0.262522,-10.392044,-0.024222379999999998,-0.00572287,-0.0073199499999999995,1746802443535864
0.371358,0.261924,-10.368124,-0.023956199999999997,-0.0047912399999999996,-0.006654499999999999,1746802463511284
0.377338,0.2691,-10.393838,-0.02369002,-0.00519051,-0.00785231,1746802483486544
0.369564,0.26790400000000003,-10.38726,-0.023556929999999997,-0.00425888,-0.00785231,1746802503461924
0.374946,0.27209,-10.392642,-0.023956199999999997,-0.0053235999999999995,-0.00785231,1746802523437224
0.371956,0.275678,-10.39025,-0.024754739999999997,-0.00505742,-0.0073199499999999995,1746802543412604
0.37973,0.28644200000000003,-10.379486,-0.023956199999999997,-0.0047912399999999996,-0.00678759,1746802563387924
0.36179,0.260728,-10.38128,-0.023556929999999997,-0.004924329999999999,-0.007453039999999999,1746802583363144
0.38152400000000003,0.270894,-10.374702000000001,-0.02329075,-0.00519051,-0.00785231,1746802603338484
0.373152,0.260728,-10.390848,-0.02408929,-0.004924329999999999,-0.0079854,1746802623313844
0.373152,0.255346,-10.381878,-0.024355469999999997,-0.0047912399999999996,-0.0079854,1746802643289204
0.360594,0.277472,-10.40221,-0.02369002,-0.0053235999999999995,-0.008118489999999999,1746802663264564
0.35581,0.262522,-10.401014,-0.02329075,-0.005456689999999999,-0.008118489999999999,1746802683239924
0.36777,0.267306,-10.406396,-0.02448856,-0.00519051,-0.0079854,1746802703215304
0.36179,0.246974,-10.389652,-0.02462165,-0.0047912399999999996,-0.00865085,1746802723190584
0.377338,0.270894,-10.357958,-0.025154009999999997,-0.00465815,-0.0079854,1746802743165924
0.371358,0.278668,-10.39922,-0.024887829999999996,-0.00465815,-0.00825158,1746802763141304
0.353418,0.27209,-10.404004,-0.023823109999999998,-0.0047912399999999996,-0.007053769999999999,1746802783116724
0.36478,0.274482,-10.38427,-0.023556929999999997,-0.00505742,-0.008384669999999999,1746802803092144
0.36478,0.279266,-10.385466000000001,-0.023956199999999997,-0.00572287,-0.006654499999999999,1746802823067284
0.37076,0.272688,-10.360948,-0.023157659999999997,-0.004924329999999999,-0.00851776,1746802843042504
0.380328,0.264316,-10.404004,-0.02408929,-0.00505742,-0.008384669999999999,1746802863017724
0.357604,0.2691,-10.365134,-0.023823109999999998,-0.00412579,-0.007719219999999999,1746802882993004
0.368966,0.273884,-10.396230000000001,-0.02329075,-0.0047912399999999996,-0.007453039999999999,1746802902968564
0.371956,0.275678,-10.401612,-0.023157659999999997,-0.00425888,-0.007453039999999999,1746802922944024
0.374946,0.264316,-10.392642,-0.023823109999999998,-0.004391969999999999,-0.007053769999999999,1746801943919344
0.384514,0.270894,-10.406396,-0.02329075,-0.00519051,-0.008118489999999999,1746801963894584
0.363584,0.271492,-10.401014,-0.023556929999999997,-0.0058559599999999995,-0.007453039999999999,1746801983869904
0.371358,0.26790400000000003,-10.386064,-0.02408929,-0.0053235999999999995,-0.0073199499999999995,1746802003845304
0.387504,0.253552,-10.36633,-0.02448856,-0.005456689999999999,-0.007586129999999999,1746802023820824
0.374348,0.2691,-10.386662,-0.024355469999999997,-0.005589779999999999,-0.0079854,1746802043796024
0.38152400000000003,0.2691,-10.383672,-0.024355469999999997,-0.0053235999999999995,-0.00718686,1746802063771464
0.380926,0.267306,-10.38128,-0.02448856,-0.005989049999999999,-0.00678759,1746802083746924
0.369564,0.272688,-10.39025,-0.02448856,-0.004924329999999999,-0.0079854,1746802103722284
0.36478,0.279864,-10.4052,-0.023024569999999998,-0.00412579,-0.007586129999999999,1746802123697664
0.380328,0.282256,-10.371712,-0.024887829999999996,-0.00519051,-0.007586129999999999,1746802143672964
0.374348,0.267306,-10.38427,-0.02369002,-0.00505742,-0.006920679999999999,1746802163648284
0.374348,0.27508,-10.404602,-0.024355469999999997,-0.00505742,-0.00718686,1746802183623544
0.380328,0.27209,-10.376496,-0.024222379999999998,-0.005456689999999999,-0.007053769999999999,1746802203599084
0.368966,0.26312,-10.41118,-0.023556929999999997,-0.0047912399999999996,-0.0079854,1746802223574484
0.368966,0.276276,-10.386662,-0.023823109999999998,-0.0053235999999999995,-0.0079854,1746802243549764
0.37076,0.2691,-10.398024,-0.024887829999999996,-0.006654499999999999,-0.007719219999999999,1746802263525104
0.380328,0.264914,-10.38427,-0.02462165,-0.004525059999999999,-0.008783939999999999,1746802283500404
0.37375,0.25714,-10.371712,-0.024355469999999997,-0.00519051,-0.007586129999999999,1746802303475804
0.374348,0.276874,-10.389054,-0.023956199999999997,-0.0058559599999999995,-0.007453039999999999,1746802323451064
0.3887,0.25116,-10.374104,-0.024355469999999997,-0.005589779999999999,-0.00785231,1746802343426344
0.365976,0.26312,-10.378888,-0.02369002,-0.00519051,-0.00825158,1746802363401724
0.380926,0.27209,-10.371712,-0.02408929,-0.00505742,-0.00851776,1746802383377144
0.380328,0.268502,-10.384868,-0.024355469999999997,-0.00505742,-0.007586129999999999,1746802403352504
0.375544,0.279864,-10.382476,-0.025154009999999997,-0.004525059999999999,-0.0079854,1746802423327804
0.382122,0.269698,-10.385466000000001,-0.023423839999999998,-0.00465815,-0.007586129999999999,1746802443303024
0.377936,0.263718,-10.3753,-0.023956199999999997,-0.004391969999999999,-0.007586129999999999,1746802463278424
0.372554,0.277472,-10.382476,-0.02448856,-0.005456689999999999,-0.0079854,1746802483253824
0.374946,0.273884,-10.392642,-0.025287099999999996,-0.005456689999999999,-0.00825158,1746802503229284
0.371956,0.277472,-10.402808,-0.02448856,-0.00425888,-0.0079854,1746802523204664
0.377338,0.279266,-10.399818,-0.02462165,-0.00519051,-0.006521409999999999,1746802543179944
0.383318,0.273884,-10.378888,-0.024754739999999997,-0.004391969999999999,-0.006521409999999999,1746802563155304
0.374946,0.259532,-10.38128,-0.024355469999999997,-0.004525059999999999,-0.00825158,1746802583130604
0.36777,0.266708,-10.410582,-0.02329075,-0.004525059999999999,-0.00785231,1746802603105964
0.365378,0.274482,-10.3753,-0.02448856,-0.00425888,-0.0079854,1746802623081484
0.374946,0.261924,-10.393838,-0.023823109999999998,-0.004525059999999999,-0.007586129999999999,1746802643056944
0.38272,0.27209,-10.39922,-0.023423839999999998,-0.00519051,-0.0073199499999999995,1746802663032324
0.37614200000000003,0.26013000000000003,-10.377692,-0.023423839999999998,-0.00505742,-0.006920679999999999,1746802683007744
0.36298600000000003,0.266708,-10.365134,-0.024222379999999998,-0.00572287,-0.00785231,1746802702983004
0.363584,0.266708,-10.375898,-0.02462165,-0.0047912399999999996,-0.008118489999999999,1746802722958404
0.36836800000000003,0.26312,-10.383672,-0.02448856,-0.0037265199999999997,-0.00851776,1746802742933784
0.383318,0.267306,-10.380682,-0.024754739999999997,-0.00465815,-0.00825158,1746802762909144
0.371358,0.274482,-10.396828,-0.02448856,-0.005589779999999999,-0.007719219999999999,1746802782884544
0.38571,0.282256,-10.388456,-0.024355469999999997,-0.0058559599999999995,-0.006654499999999999,1746802802860024
0.37973,0.252954,-10.387858,-0.02448856,-0.00505742,-0.0079854,1746802822835444
0.372554,0.267306,-10.377692,-0.024222379999999998,-0.00505742,-0.0073199499999999995,1746802842810624
0.386308,0.269698,-10.386064,-0.023423839999999998,-0.0053235999999999995,-0.007453039999999999,1746802862786104
0.393484,0.26312,-10.370516,-0.023956199999999997,-0.00519051,-0.008118489999999999,1746802882761564
0.377936,0.261924,-10.362144,-0.023823109999999998,-0.0047912399999999996,-0.0079854,1746802902736944
0.374348,0.262522,-10.396230000000001,-0.023823109999999998,-0.0047912399999999996,-0.007719219999999999,1746802922712404
0.386308,0.26790400000000003,-10.39324,-0.023956199999999997,-0.006388319999999999,-0.00785231,1746801943687764
0.379132,0.268502,-10.399818,-0.02369002,-0.00519051,-0.0073199499999999995,1746801963663004
0.366574,0.274482,-10.400416,-0.02448856,-0.00505742,-0.007453039999999999,1746801983638324
0.377936,0.284648,-10.382476,-0.024887829999999996,-0.004525059999999999,-0.007453039999999999,1746802003613684
0.38571,0.273884,-10.386064,-0.02448856,-0.00412579,-0.00785231,1746802023588984
0.359398,0.27328600000000003,-10.39025,-0.02462165,-0.0047912399999999996,-0.007586129999999999,1746802043564344
0.365976,0.273884,-10.391446,-0.023956199999999997,-0.0047912399999999996,-0.0073199499999999995,1746802063539624
0.377338,0.27328600000000003,-10.40221,-0.023157659999999997,-0.004924329999999999,-0.00612214,1746802083515084
0.362388,0.264914,-10.40221,-0.023556929999999997,-0.004924329999999999,-0.00718686,1746802103490404
0.371956,0.258336,-10.389054,-0.023823109999999998,-0.0047912399999999996,-0.007453039999999999,1746802123465644
0.36777,0.279266,-10.388456,-0.02448856,-0.00425888,-0.007719219999999999,1746802143440964
0.368966,0.269698,-10.392044,-0.02462165,-0.005589779999999999,-0.00718686,1746802163416464
0.389896,0.262522,-10.369918,-0.02448856,-0.005456689999999999,-0.006388319999999999,1746802183391824
0.37674,0.271492,-10.382476,-0.024754739999999997,-0.005456689999999999,-0.00718686,1746802203367184
0.35282,0.267306,-10.393838,-0.023423839999999998,-0.00572287,-0.007586129999999999,1746802223342584
0.359398,0.26611,-10.387858,-0.023423839999999998,-0.005589779999999999,-0.008118489999999999,1746802243317984
0.371358,0.271492,-10.389054,-0.024222379999999998,-0.00612214,-0.008384669999999999,1746802263293204
0.365976,0.276874,-10.373506,-0.02542019,-0.00519051,-0.00785231,1746802283268364
0.378534,0.280462,-10.398024,-0.025553279999999998,-0.0038596099999999994,-0.008118489999999999,1746802303243664
0.385112,0.275678,-10.383672,-0.024222379999999998,-0.0038596099999999994,-0.00718686,1746802323219024
0.38272,0.267306,-10.380682,-0.02448856,-0.00425888,-0.007586129999999999,1746802343194444
0.370162,0.272688,-10.377094,-0.023423839999999998,-0.004924329999999999,-0.0079854,1746802363169744
0.36298600000000003,0.266708,-10.386662,-0.023823109999999998,-0.00465815,-0.00785231,1746802383144984
0.37375,0.27508,-10.406994000000001,-0.024222379999999998,-0.00425888,-0.007053769999999999,1746802403120284
0.3588,0.265512,-10.38726,-0.024355469999999997,-0.0047912399999999996,-0.007586129999999999,1746802423095624
0.380926,0.27209,-10.38427,-0.023956199999999997,-0.005456689999999999,-0.008384669999999999,1746802443070984
0.38571,0.27209,-10.39324,-0.023956199999999997,-0.005589779999999999,-0.0079854,1746802463046444
0.368966,0.276874,-10.386064,-0.02448856,-0.004525059999999999,-0.007586129999999999,1746802483021924
0.384514,0.282256,-10.392642,-0.024222379999999998,-0.00519051,-0.006388319999999999,1746802502997184
0.367172,0.274482,-10.397426,-0.024887829999999996,-0.0053235999999999995,-0.007453039999999999,1746802522972484
0.368966,0.264914,-10.387858,-0.024887829999999996,-0.00505742,-0.008384669999999999,1746802542947824
0.365976,0.2691,-10.396828,-0.023024569999999998,-0.004924329999999999,-0.00678759,1746802562923184
0.36478,0.2691,-10.398622,-0.02408929,-0.0053235999999999995,-0.007453039999999999,1746802582898584
0.374946,0.2691,-10.393838,-0.023157659999999997,-0.00519051,-0.0073199499999999995,1746802602874084
0.38152400000000003,0.267306,-10.380682,-0.023423839999999998,-0.00505742,-0.007586129999999999,1746802622849324
0.377936,0.265512,-10.38726,-0.024887829999999996,-0.004924329999999999,-0.007586129999999999,1746802642824644
0.365378,0.276874,-10.396828,-0.02448856,-0.005456689999999999,-0.007586129999999999,1746802662800024
0.373152,0.278668,-10.403406,-0.024355469999999997,-0.00572287,-0.007719219999999999,1746802682775444
0.374348,0.270296,-10.386064,-0.02462165,-0.0053235999999999995,-0.006920679999999999,1746802702750944
0.365976,0.270296,-10.376496,-0.02542019,-0.00519051,-0.0079854,1746802722726344
0.37674,0.259532,-10.363938000000001,-0.024887829999999996,-0.00465815,-0.007719219999999999,1746802742701704
0.37076,0.271492,-10.390848,-0.023956199999999997,-0.005589779999999999,-0.0079854,1746802762677084
0.37614200000000003,0.261924,-10.363938000000001,-0.023956199999999997,-0.005456689999999999,-0.00678759,1746802782652564
0.39169,0.256542,-10.3753,-0.024754739999999997,-0.00505742,-0.0079854,1746802802627864
0.37674,0.262522,-10.412974,-0.023823109999999998,-0.004391969999999999,-0.0073199499999999995,1746802822603224
0.375544,0.28405,-10.402808,-0.024222379999999998,-0.00519051,-0.00865085,1746802842578544
0.369564,0.270296,-10.385466000000001,-0.023823109999999998,-0.005456689999999999,-0.007719219999999999,1746802862553964
0.374946,0.27328600000000003,-10.383672,-0.023556929999999997,-0.004391969999999999,-0.007453039999999999,1746802882529304
0.384514,0.27209,-10.385466000000001,-0.02502092,-0.00505742,-0.0079854,1746802902504664
0.371358,0.260728,-10.389054,-0.023556929999999997,-0.0053235999999999995,-0.008783939999999999,1746802922480024
0.36836800000000003,0.27209,-10.367526,-0.02448856,-0.0039927,-0.00785231,1746801943455304
0.379132,0.271492,-10.389652,-0.024355469999999997,-0.005589779999999999,-0.007586129999999999,1746801963430524
0.37375,0.258336,-10.369918,-0.02448856,-0.005456689999999999,-0.0073199499999999995,1746801983405924
0.37973,0.26611,-10.403406,-0.023956199999999997,-0.0053235999999999995,-0.00785231,1746802003381244
0.380328,0.265512,-10.406994000000001,-0.023956199999999997,-0.0053235999999999995,-0.006521409999999999,1746802023356544
0.37614200000000003,0.263718,-10.385466000000001,-0.02408929,-0.00519051,-0.006920679999999999,1746802043331884
0.36836800000000003,0.252954,-10.388456,-0.024355469999999997,-0.004924329999999999,-0.007586129999999999,1746802063307164
0.365976,0.264316,-10.394436,-0.024754739999999997,-0.00505742,-0.0073199499999999995,1746802083282444
0.371956,0.267306,-10.4052,-0.02369002,-0.00505742,-0.006920679999999999,1746802103257804
0.372554,0.263718,-10.38128,-0.02462165,-0.004391969999999999,-0.00785231,1746802123233024
0.37076,0.26611,-10.396230000000001,-0.024222379999999998,-0.004525059999999999,-0.0079854,1746802143208364
0.36478,0.26312,-10.381878,-0.02329075,-0.005456689999999999,-0.005589779999999999,1746802163183684
0.365378,0.257738,-10.383074,-0.02369002,-0.00505742,-0.0079854,1746802183159044
0.38272,0.25714,-10.382476,-0.024222379999999998,-0.005589779999999999,-0.00851776,1746802203134324
0.372554,0.277472,-10.383074,-0.023956199999999997,-0.004391969999999999,-0.008384669999999999,1746802223109664
0.373152,0.262522,-10.389652,-0.02408929,-0.0053235999999999995,-0.0073199499999999995,1746802243084984
0.374946,0.252954,-10.379486,-0.02369002,-0.00505742,-0.008118489999999999,1746802263060424
0.361192,0.272688,-10.399818,-0.02408929,-0.00519051,-0.00865085,1746802283035764
0.37973,0.288236,-10.404602,-0.024222379999999998,-0.004924329999999999,-0.007586129999999999,1746802303011084
0.369564,0.263718,-10.376496,-0.024222379999999998,-0.004391969999999999,-0.007719219999999999,1746802322986444
0.350428,0.27328600000000003,-10.383074,-0.024222379999999998,-0.004525059999999999,-0.007719219999999999,1746802342961684
0.367172,0.272688,-10.399818,-0.024222379999999998,-0.004525059999999999,-0.00851776,1746802362936904
0.385112,0.2691,-10.380084,-0.02369002,-0.0039927,-0.007053769999999999,1746802382912184
0.370162,0.259532,-10.368722,-0.02408929,-0.00465815,-0.00678759,1746802402887624
0.374348,0.262522,-10.401014,-0.023956199999999997,-0.004525059999999999,-0.0079854,1746802422862904
0.37614200000000003,0.256542,-10.41118,-0.023157659999999997,-0.00412579,-0.008384669999999999,1746802442838244
0.374946,0.263718,-10.389652,-0.02502092,-0.00519051,-0.00825158,1746802462813564
0.364182,0.262522,-10.377692,-0.024355469999999997,-0.0047912399999999996,-0.008384669999999999,1746802482788944
0.37076,0.271492,-10.363938000000001,-0.023823109999999998,-0.005989049999999999,-0.00785231,1746802502764264
0.372554,0.27328600000000003,-10.396828,-0.02408929,-0.00612214,-0.008118489999999999,1746802522739644
0.371358,0.2691,-10.372908,-0.023823109999999998,-0.004924329999999999,-0.0073199499999999995,1746802542714984
0.377338,0.26790400000000003,-10.374104,-0.02329075,-0.00505742,-0.007453039999999999,1746802562690324
0.374348,0.26611,-10.37829,-0.023823109999999998,-0.004924329999999999,-0.007453039999999999,1746802582665624
0.358202,0.276874,-10.392044,-0.02462165,-0.0053235999999999995,-0.006654499999999999,1746802602641024
0.371956,0.264914,-10.380084,-0.024754739999999997,-0.005456689999999999,-0.00718686,1746802622616264
0.34385,0.275678,-10.409984,-0.024754739999999997,-0.004525059999999999,-0.007053769999999999,1746802642591564
0.36478,0.257738,-10.393838,-0.024355469999999997,-0.0053235999999999995,-0.007586129999999999,1746802662567004
0.395278,0.258934,-10.387858,-0.024355469999999997,-0.005589779999999999,-0.00678759,1746802682542344
0.364182,0.25474800000000003,-10.364536,-0.02448856,-0.00572287,-0.00785231,1746802702517764
0.370162,0.272688,-10.397426,-0.023956199999999997,-0.005456689999999999,-0.0079854,1746802722493024
0.36298600000000003,0.25415,-10.397426,-0.02369002,-0.00505742,-0.008118489999999999,1746802742468304
0.359398,0.265512,-10.395632,-0.023956199999999997,-0.00519051,-0.00851776,1746802762443764
0.37614200000000003,0.261924,-10.401014,-0.024887829999999996,-0.00505742,-0.00785231,1746802782419064
0.386308,0.263718,-10.36932,-0.02462165,-0.00505742,-0.007053769999999999,1746802802394344
0.372554,0.257738,-10.378888,-0.024222379999999998,-0.00519051,-0.006521409999999999,1746802822369584
0.395278,0.267306,-10.386662,-0.024355469999999997,-0.005456689999999999,-0.006654499999999999,1746802842344964
0.377338,0.263718,-10.358556,-0.024754739999999997,-0.004525059999999999,-0.007719219999999999,1746802862320204
0.365378,0.2691,-10.364536,-0.02369002,-0.005456689999999999,-0.00718686,1746802882295524
0.389298,0.26611,-10.380084,-0.023556929999999997,-0.004525059999999999,-0.0079854,1746802902270924
0.378534,0.26790400000000003,-10.377094,-0.023956199999999997,-0.00519051,-0.0079854,1746802922246344
0.374946,0.276874,-10.389652,-0.023823109999999998,-0.00572287,-0.007586129999999999,1746801943221824
0.36777,0.265512,-10.396230000000001,-0.023556929999999997,-0.004924329999999999,-0.007586129999999999,1746801963197044
0.37674,0.263718,-10.38427,-0.023556929999999997,-0.00505742,-0.009183209999999999,1746801983172384
0.379132,0.269698,-10.38128,-0.024222379999999998,-0.005456689999999999,-0.007719219999999999,1746802003147804
0.374946,0.267306,-10.375898,-0.02462165,-0.00505742,-0.0073199499999999995,1746802023123224
0.366574,0.267306,-10.389054,-0.024355469999999997,-0.004924329999999999,-0.007719219999999999,1746802043098624
0.38272,0.270894,-10.367526,-0.023556929999999997,-0.0053235999999999995,-0.006521409999999999,1746802063073924
0.387504,0.26611,-10.377692,-0.024887829999999996,-0.004924329999999999,-0.007586129999999999,1746802083049224
0.375544,0.270296,-10.399818,-0.023956199999999997,-0.005589779999999999,-0.00865085,1746802103024544
0.380926,0.25714,-10.380084,-0.024222379999999998,-0.005456689999999999,-0.007586129999999999,1746802122999924
0.378534,0.26312,-10.406994000000001,-0.02408929,-0.00519051,-0.007053769999999999,1746802142975164
0.38152400000000003,0.27328600000000003,-10.38726,-0.024222379999999998,-0.00425888,-0.00678759,1746802162950464
0.373152,0.26312,-10.398024,-0.02462165,-0.004924329999999999,-0.007586129999999999,1746802182925904
0.383916,0.288834,-10.380682,-0.024887829999999996,-0.0047912399999999996,-0.007586129999999999,1746802202901244
0.375544,0.282256,-10.39025,-0.023956199999999997,-0.004391969999999999,-0.006920679999999999,1746802222876644
0.37375,0.27209,-10.394436,-0.023556929999999997,-0.005456689999999999,-0.006920679999999999,1746802242851984
0.36179,0.277472,-10.386662,-0.02369002,-0.00465815,-0.007719219999999999,1746802262827464
0.377338,0.26790400000000003,-10.389054,-0.024222379999999998,-0.005589779999999999,-0.007586129999999999,1746802282802904
0.37973,0.27209,-10.386662,-0.023024569999999998,-0.005456689999999999,-0.007719219999999999,1746802302778624
0.377936,0.274482,-10.392642,-0.02408929,-0.004924329999999999,-0.0073199499999999995,1746802322753944
0.366574,0.269698,-10.39324,-0.02502092,-0.00505742,-0.00718686,1746802342729224
0.37076,0.270296,-10.37231,-0.023823109999999998,-0.00519051,-0.008118489999999999,1746802362704684
0.36298600000000003,0.27807,-10.389652,-0.02408929,-0.005989049999999999,-0.008783939999999999,1746802382680084
0.37076,0.26312,-10.36932,-0.02369002,-0.004525059999999999,-0.00865085,1746802402655384
0.375544,0.269698,-10.386064,-0.02369002,-0.00425888,-0.007053769999999999,1746802422630924
0.372554,0.271492,-10.39025,-0.023157659999999997,-0.00505742,-0.0073199499999999995,1746802442606304
0.374348,0.272688,-10.383074,-0.02448856,-0.00625523,-0.007053769999999999,1746802462581724
0.38272,0.261326,-10.368722,-0.024355469999999997,-0.004924329999999999,-0.0073199499999999995,1746802482557124
0.378534,0.261924,-10.404004,-0.023823109999999998,-0.00465815,-0.007053769999999999,1746802502532544
0.382122,0.274482,-10.398024,-0.02502092,-0.005589779999999999,-0.006521409999999999,1746802522507924
0.372554,0.274482,-10.391446,-0.023423839999999998,-0.005989049999999999,-0.006521409999999999,1746802542483724
0.368966,0.271492,-10.409984,-0.023956199999999997,-0.006388319999999999,-0.008118489999999999,1746802562458984
0.38152400000000003,0.275678,-10.383672,-0.023556929999999997,-0.004525059999999999,-0.007719219999999999,1746802582434204
0.373152,0.270296,-10.37231,-0.02369002,-0.0039927,-0.0079854,1746802602409584
0.379132,0.266708,-10.408788,-0.024355469999999997,-0.004924329999999999,-0.00891703,1746802622384944
0.365378,0.260728,-10.377692,-0.02329075,-0.005456689999999999,-0.007053769999999999,1746802642360264
0.365378,0.273884,-10.380682,-0.02408929,-0.0053235999999999995,-0.0073199499999999995,1746802662335544
0.36777,0.261924,-10.38726,-0.02329075,-0.004924329999999999,-0.00785231,1746802682310804
0.367172,0.25714,-10.377094,-0.023423839999999998,-0.00519051,-0.007586129999999999,1746802702286164
0.380926,0.268502,-10.384868,-0.023823109999999998,-0.005456689999999999,-0.008118489999999999,1746802722261504
0.378534,0.270894,-10.38726,-0.024355469999999997,-0.004525059999999999,-0.007453039999999999,1746802742236824
0.38152400000000003,0.273884,-10.396230000000001,-0.024222379999999998,-0.0027948899999999995,-0.00785231,1746802762212124
0.374348,0.261326,-10.386662,-0.024222379999999998,-0.0039927,-0.006521409999999999,1746802782187444
0.386308,0.267306,-10.39324,-0.023823109999999998,-0.005456689999999999,-0.0073199499999999995,1746802802162824
0.384514,0.266708,-10.38427,-0.023956199999999997,-0.004525059999999999,-0.0073199499999999995,1746802822138004
0.377338,0.266708,-10.379486,-0.024355469999999997,-0.00425888,-0.00718686,1746802842113424
0.361192,0.270894,-10.38128,-0.024754739999999997,-0.004391969999999999,-0.00678759,1746802862088764
0.36836800000000003,0.268502,-10.380682,-0.024887829999999996,-0.004525059999999999,-0.005989049999999999,1746802882064064
0.386308,0.276874,-10.375898,-0.023823109999999998,-0.005589779999999999,-0.0073199499999999995,1746802902039324
0.380328,0.27209,-10.388456,-0.023556929999999997,-0.0053235999999999995,-0.00865085,1746802922014604
0.37674,0.265512,-10.408788,-0.02462165,-0.0047912399999999996,-0.0073199499999999995,1746801942989544
0.365976,0.278668,-10.373506,-0.024754739999999997,-0.00505742,-0.007586129999999999,1746801962964864
0.375544,0.267306,-10.395034,-0.02502092,-0.00425888,-0.00785231,1746801982940184
0.365976,0.277472,-10.369918,-0.023956199999999997,-0.005456689999999999,-0.0073199499999999995,1746802002915484
0.37674,0.252356,-10.396230000000001,-0.02369002,-0.005589779999999999,-0.007453039999999999,1746802022890764
0.373152,0.269698,-10.411778,-0.02408929,-0.005989049999999999,-0.006920679999999999,1746802042866044
0.374946,0.274482,-10.38128,-0.02502092,-0.0047912399999999996,-0.00678759,1746802062841224
0.363584,0.258934,-10.386064,-0.024754739999999997,-0.00572287,-0.006920679999999999,1746802082816584
0.36836800000000003,0.261326,-10.378888,-0.024754739999999997,-0.005589779999999999,-0.0073199499999999995,1746802102791884
0.367172,0.264316,-10.39324,-0.024355469999999997,-0.00519051,-0.00785231,1746802122767264
0.361192,0.258934,-10.375898,-0.023823109999999998,-0.0047912399999999996,-0.00718686,1746802142742544
0.375544,0.28106,-10.394436,-0.02448856,-0.004525059999999999,-0.007053769999999999,1746802162717864
0.380926,0.272688,-10.385466000000001,-0.02369002,-0.004525059999999999,-0.007053769999999999,1746802182692724
0.384514,0.258336,-10.374104,-0.023823109999999998,-0.004525059999999999,-0.0073199499999999995,1746802202668064
0.374946,0.26611,-10.384868,-0.024355469999999997,-0.0047912399999999996,-0.007053769999999999,1746802242791234
0.37973,0.255944,-10.391446,-0.024222379999999998,-0.00519051,-0.007453039999999999,1746802262766314
0.380328,0.271492,-10.398622,-0.023823109999999998,-0.00505742,-0.007586129999999999,1746802282741394
0.38272,0.278668,-10.382476,-0.024355469999999997,-0.006388319999999999,-0.0079854,1746802302716494
0.377338,0.272688,-10.4052,-0.023823109999999998,-0.005456689999999999,-0.008384669999999999,1746802322691614
0.37674,0.2691,-10.386662,-0.024754739999999997,-0.004924329999999999,-0.007719219999999999,1746802342667234
0.37973,0.25415,-10.392642,-0.02369002,-0.0058559599999999995,-0.007586129999999999,1746802362642414
0.374348,0.267306,-10.37829,-0.023956199999999997,-0.005456689999999999,-0.0073199499999999995,1746802382617494
0.368966,0.273884,-10.392642,-0.024355469999999997,-0.004924329999999999,-0.00825158,1746802402592634
0.366574,0.276276,-10.387858,-0.024887829999999996,-0.00572287,-0.0079854,1746802422567774
0.367172,0.267306,-10.395632,-0.024355469999999997,-0.0047912399999999996,-0.007053769999999999,1746802442542794
0.383916,0.262522,-10.42314,-0.02448856,-0.0053235999999999995,-0.0079854,1746802462518014
0.380926,0.264914,-10.398024,-0.02408929,-0.0053235999999999995,-0.008384669999999999,1746802482493034
0.384514,0.271492,-10.380682,-0.02462165,-0.00465815,-0.0079854,1746802502468174
0.36179,0.27328600000000003,-10.375898,-0.02502092,-0.00425888,-0.007586129999999999,1746802522443694
0.351026,0.276276,-10.38726,-0.02462165,-0.004391969999999999,-0.006388319999999999,1746802542418774
0.36179,0.27209,-10.376496,-0.02462165,-0.005456689999999999,-0.007719219999999999,1746802562393914
0.383318,0.26790400000000003,-10.371712,-0.024355469999999997,-0.00572287,-0.006920679999999999,1746802582369074
0.370162,0.2691,-10.387858,-0.024355469999999997,-0.00519051,-0.007719219999999999,1746802602344114
0.37375,0.257738,-10.417758000000001,-0.023956199999999997,-0.005589779999999999,-0.008384669999999999,1746802622319334
0.37674,0.264316,-10.418356,-0.024355469999999997,-0.00625523,-0.007719219999999999,1746802642294554
0.370162,0.275678,-10.382476,-0.024355469999999997,-0.0053235999999999995,-0.008118489999999999,1746802662269834
0.378534,0.278668,-10.392044,-0.023823109999999998,-0.00519051,-0.0073199499999999995,1746802682245014
0.377936,0.267306,-10.383672,-0.024222379999999998,-0.0053235999999999995,-0.00718686,1746802702220234
0.379132,0.270894,-10.386662,-0.02462165,-0.005589779999999999,-0.008384669999999999,1746802722195534
0.383916,0.270296,-10.394436,-0.023823109999999998,-0.005989049999999999,-0.007053769999999999,1746802742170694
0.36298600000000003,0.258336,-10.386662,-0.02448856,-0.00519051,-0.007053769999999999,1746802762145874
0.37076,0.277472,-10.381878,-0.02448856,-0.005589779999999999,-0.008118489999999999,1746802782121114
0.373152,0.285844,-10.390848,-0.02462165,-0.00519051,-0.008118489999999999,1746802802096154
0.377936,0.260728,-10.374702000000001,-0.02408929,-0.00465815,-0.00718686,1746802822071274
0.36777,0.270296,-10.36932,-0.023423839999999998,-0.004391969999999999,-0.00678759,1746802842046374
0.359398,0.276874,-10.383074,-0.023556929999999997,-0.004924329999999999,-0.007053769999999999,1746802862021454
0.382122,0.264316,-10.377692,-0.023157659999999997,-0.00465815,-0.007719219999999999,1746802881996574
0.374946,0.261326,-10.375898,-0.02369002,-0.0047912399999999996,-0.0073199499999999995,1746802901971974
0.36777,0.271492,-10.378888,-0.02462165,-0.0047912399999999996,-0.007586129999999999,1746802921947274
0.364182,0.270894,-10.38427,-0.02369002,-0.004525059999999999,-0.00625523,1746801942922614
0.371956,0.261326,-10.396828,-0.023556929999999997,-0.0047912399999999996,-0.006920679999999999,1746801962897934
0.383318,0.271492,-10.392044,-0.023823109999999998,-0.00505742,-0.00612214,1746801982872834
0.374946,0.259532,-10.382476,-0.024355469999999997,-0.0053235999999999995,-0.006388319999999999,1746802002848114
0.361192,0.26312,-10.370516,-0.024222379999999998,-0.004924329999999999,-0.007453039999999999,1746802022823454
0.369564,0.249964,-10.396230000000001,-0.024355469999999997,-0.0053235999999999995,-0.0073199499999999995,1746802042798754
0.371358,0.263718,-10.363938000000001,-0.023823109999999998,-0.00505742,-0.007586129999999999,1746802062774014
0.371358,0.274482,-10.391446,-0.023423839999999998,-0.00505742,-0.0079854,1746802082749354
0.36298600000000003,0.271492,-10.395632,-0.023157659999999997,-0.00505742,-0.007453039999999999,1746802102724594
0.359996,0.268502,-10.393838,-0.02369002,-0.005589779999999999,-0.007586129999999999,1746802122699974
0.373152,0.257738,-10.391446,-0.023823109999999998,-0.006388319999999999,-0.00785231,1746802142675494
0.372554,0.259532,-10.39025,-0.02408929,-0.005456689999999999,-0.0079854,1746802162650374
0.36836800000000003,0.27807,-10.362144,-0.02462165,-0.0053235999999999995,-0.007053769999999999,1746802182625674
0.368966,0.259532,-10.379486,-0.024355469999999997,-0.0053235999999999995,-0.007719219999999999,1746802202600954
0.36836800000000003,0.276276,-10.40221,-0.02408929,-0.00572287,-0.007453039999999999,1746802222576194
0.386906,0.26312,-10.400416,-0.02329075,-0.00465815,-0.007053769999999999,1746802242551534
0.363584,0.2691,-10.383074,-0.023823109999999998,-0.0047912399999999996,-0.007586129999999999,1746802262526834
0.39468000000000003,0.270894,-10.386064,-0.024222379999999998,-0.005456689999999999,-0.007453039999999999,1746802282502074
0.380328,0.274482,-10.374702000000001,-0.023823109999999998,-0.004525059999999999,-0.007719219999999999,1746802302477234
0.386308,0.26611,-10.388456,-0.024355469999999997,-0.0047912399999999996,-0.00718686,1746802322452434
0.364182,0.265512,-10.397426,-0.024355469999999997,-0.00505742,-0.007719219999999999,1746802342427714
0.37076,0.276276,-10.366928,-0.02448856,-0.0047912399999999996,-0.00718686,1746802362402874
0.355212,0.265512,-10.39025,-0.02329075,-0.004525059999999999,-0.00678759,1746802382378154
0.374946,0.259532,-10.394436,-0.024222379999999998,-0.0039927,-0.008384669999999999,1746802402353374
0.37076,0.258934,-10.41118,-0.023423839999999998,-0.00425888,-0.007586129999999999,1746802422328574
0.36179,0.27508,-10.393838,-0.023823109999999998,-0.004391969999999999,-0.00718686,1746802442303854
0.377338,0.27328600000000003,-10.377692,-0.02408929,-0.004924329999999999,-0.006654499999999999,1746802462279194
0.383916,0.264316,-10.3753,-0.024222379999999998,-0.00519051,-0.00718686,1746802482254454
0.373152,0.27209,-10.369918,-0.023823109999999998,-0.004525059999999999,-0.007719219999999999,1746802502229794
0.363584,0.27508,-10.392044,-0.023157659999999997,-0.004924329999999999,-0.007719219999999999,1746802522205094
0.36478,0.2691,-10.389054,-0.02408929,-0.004924329999999999,-0.007453039999999999,1746802542180494
0.380328,0.273884,-10.407592,-0.023423839999999998,-0.00465815,-0.007586129999999999,1746802562155874
0.368966,0.277472,-10.400416,-0.023024569999999998,-0.00465815,-0.008384669999999999,1746802582131294
0.374946,0.276276,-10.392044,-0.02289148,-0.004924329999999999,-0.007586129999999999,1746802602106694
0.373152,0.260728,-10.390848,-0.02408929,-0.00505742,-0.007453039999999999,1746802622081954
0.37375,0.265512,-10.373506,-0.024355469999999997,-0.005456689999999999,-0.007053769999999999,1746802642057274
0.372554,0.268502,-10.372908,-0.02448856,-0.00465815,-0.007719219999999999,1746802662032534
0.368966,0.275678,-10.383074,-0.023423839999999998,-0.00465815,-0.00785231,1746802682007814
0.37614200000000003,0.28704,-10.360948,-0.02448856,-0.005456689999999999,-0.007719219999999999,1746802701983494
0.37614200000000003,0.26790400000000003,-10.389652,-0.023956199999999997,-0.00572287,-0.007586129999999999,1746802721958894
0.358202,0.257738,-10.381878,-0.02408929,-0.00425888,-0.008118489999999999,1746802741934234
0.37614200000000003,0.25714,-10.377692,-0.02462165,-0.0053235999999999995,-0.008384669999999999,1746802761909694
0.367172,0.266708,-10.402808,-0.025287099999999996,-0.00519051,-0.00891703,1746802781884834
0.373152,0.270894,-10.372908,-0.02462165,-0.0038596099999999994,-0.007453039999999999,1746802801860134
0.372554,0.244582,-10.389054,-0.023956199999999997,-0.00425888,-0.006388319999999999,1746802821835634
0.373152,0.264316,-10.377094,-0.02408929,-0.0047912399999999996,-0.006920679999999999,1746802841810994
0.36836800000000003,0.258934,-10.39922,-0.02448856,-0.005589779999999999,-0.00865085,1746802861786354
0.37076,0.255346,-10.392044,-0.02329075,-0.005589779999999999,-0.00785231,1746802881761714
0.36298600000000003,0.270296,-10.360948,-0.023956199999999997,-0.0047912399999999996,-0.00825158,1746802901737074
0.36478,0.26312,-10.381878,-0.024222379999999998,-0.004924329999999999,-0.00718686,1746802921712494
0.38272,0.258934,-10.383672,-0.023823109999999998,-0.0053235999999999995,-0.008118489999999999,1746801942687894
0.377338,0.282256,-10.39324,-0.023956199999999997,-0.00465815,-0.0073199499999999995,1746801962663234
0.380328,0.263718,-10.378888,-0.024355469999999997,-0.004391969999999999,-0.007586129999999999,1746801982638574
0.374348,0.260728,-10.366928,-0.024222379999999998,-0.00425888,-0.006521409999999999,1746802002613934
0.374348,0.27508,-10.358556,-0.02448856,-0.00465815,-0.007053769999999999,1746802022589254
0.371358,0.270296,-10.388456,-0.024355469999999997,-0.0053235999999999995,-0.0079854,1746802042564614
0.38152400000000003,0.270296,-10.403406,-0.02408929,-0.005589779999999999,-0.00891703,1746802062539934
0.37614200000000003,0.27508,-10.368722,-0.02369002,-0.00465815,-0.0073199499999999995,1746802082515374
0.377936,0.27508,-10.390848,-0.024887829999999996,-0.00412579,-0.0073199499999999995,1746802102490754
0.37973,0.267306,-10.390848,-0.024222379999999998,-0.005989049999999999,-0.007586129999999999,1746802122466054
0.370162,0.26611,-10.369918,-0.024355469999999997,-0.0053235999999999995,-0.006920679999999999,1746802142441354
0.375544,0.261326,-10.39025,-0.02502092,-0.005589779999999999,-0.00785231,1746802162416814
0.377338,0.27328600000000003,-10.392044,-0.023556929999999997,-0.0053235999999999995,-0.007586129999999999,1746802182392034
0.371956,0.262522,-10.388456,-0.02329075,-0.005989049999999999,-0.0079854,1746802202367314
0.36478,0.267306,-10.37829,-0.023823109999999998,-0.00572287,-0.007719219999999999,1746802222342734
0.369564,0.261924,-10.36334,-0.02448856,-0.005989049999999999,-0.006521409999999999,1746802242318034
0.37973,0.271492,-10.377094,-0.024754739999999997,-0.004924329999999999,-0.006920679999999999,1746802262293474
0.371358,0.261924,-10.390848,-0.024355469999999997,-0.00625523,-0.0079854,1746802282268834
0.37674,0.258934,-10.38726,-0.02448856,-0.00505742,-0.00785231,1746802302244214
0.34983000000000003,0.267306,-10.395034,-0.02408929,-0.004525059999999999,-0.00825158,1746802322219594
0.383916,0.273884,-10.376496,-0.02408929,-0.0047912399999999996,-0.00785231,1746802342194674
0.38152400000000003,0.287638,-10.377094,-0.024887829999999996,-0.0053235999999999995,-0.006388319999999999,1746802362170054
0.38152400000000003,0.279864,-10.380084,-0.024754739999999997,-0.004924329999999999,-0.00678759,1746802382145334
0.38272,0.27209,-10.386064,-0.02448856,-0.00505742,-0.007719219999999999,1746802402120534
0.37973,0.293618,-10.40221,-0.024355469999999997,-0.0053235999999999995,-0.006920679999999999,1746802422096174
0.361192,0.276874,-10.395632,-0.024222379999999998,-0.005589779999999999,-0.007586129999999999,1746802442071514
0.359996,0.2691,-10.358556,-0.023956199999999997,-0.00519051,-0.0079854,1746802462046734
0.369564,0.270296,-10.380682,-0.023556929999999997,-0.0053235999999999995,-0.00678759,1746802482022154
0.37973,0.261924,-10.38128,-0.023423839999999998,-0.004391969999999999,-0.007719219999999999,1746802501997654
0.377936,0.25714,-10.385466000000001,-0.024222379999999998,-0.00519051,-0.006388319999999999,1746802521973074
0.37973,0.261326,-10.381878,-0.02448856,-0.00519051,-0.0073199499999999995,1746802541948334
0.371358,0.257738,-10.379486,-0.02448856,-0.005589779999999999,-0.00718686,1746802561923714
0.357006,0.258336,-10.390848,-0.024355469999999997,-0.00572287,-0.00678759,1746802581899074
0.367172,0.27807,-10.406994000000001,-0.023556929999999997,-0.004525059999999999,-0.007053769999999999,1746802601874634
0.371358,0.266708,-10.369918,-0.023556929999999997,-0.004391969999999999,-0.007053769999999999,1746802621850054
0.37076,0.266708,-10.383672,-0.023556929999999997,-0.0047912399999999996,-0.007453039999999999,1746802641825414
0.372554,0.269698,-10.384868,-0.024222379999999998,-0.0047912399999999996,-0.006920679999999999,1746802661800854
0.374946,0.253552,-10.394436,-0.02329075,-0.00505742,-0.006920679999999999,1746802681776234
0.36777,0.258934,-10.368722,-0.024355469999999997,-0.005589779999999999,-0.006521409999999999,1746802701751634
0.363584,0.261326,-10.395632,-0.024355469999999997,-0.00572287,-0.00718686,1746802721726954
0.372554,0.27807,-10.392044,-0.024355469999999997,-0.005456689999999999,-0.007453039999999999,1746802741702194
0.38152400000000003,0.272688,-10.380682,-0.02408929,-0.0058559599999999995,-0.00678759,1746802761677614
0.36836800000000003,0.271492,-10.368124,-0.02369002,-0.00412579,-0.007719219999999999,1746802781653014
0.367172,0.26013000000000003,-10.396230000000001,-0.023423839999999998,-0.004924329999999999,-0.00891703,1746802801628214
0.363584,0.269698,-10.414768,-0.024355469999999997,-0.00465815,-0.0073199499999999995,1746802821603514
0.37614200000000003,0.258336,-10.380084,-0.024355469999999997,-0.004924329999999999,-0.00612214,1746802841579034
0.383916,0.261924,-10.371712,-0.02542019,-0.0047912399999999996,-0.007453039999999999,1746802861554174
0.379132,0.263718,-10.393838,-0.024222379999999998,-0.004924329999999999,-0.007053769999999999,1746802881529494
0.366574,0.261326,-10.381878,-0.024222379999999998,-0.004525059999999999,-0.00718686,1746802901504694
0.37076,0.255944,-10.365732,-0.02369002,-0.00465815,-0.007586129999999999,1746802921480074
0.364182,0.2691,-10.381878,-0.023157659999999997,-0.00465815,-0.007453039999999999,1746801942455454
0.370162,0.249366,-10.380084,-0.023556929999999997,-0.00519051,-0.007586129999999999,1746801962430794
0.391092,0.26013000000000003,-10.388456,-0.02462165,-0.00505742,-0.005589779999999999,1746801982406054
0.386906,0.26611,-10.396230000000001,-0.02462165,-0.005456689999999999,-0.00678759,1746802002381354
0.37375,0.266708,-10.39025,-0.02448856,-0.004924329999999999,-0.00678759,1746802022356794
0.37674,0.262522,-10.38726,-0.024222379999999998,-0.005456689999999999,-0.00825158,1746802042332154
0.377936,0.270296,-10.368124,-0.024222379999999998,-0.004924329999999999,-0.00785231,1746802062307234
0.380328,0.264316,-10.403406,-0.023556929999999997,-0.00465815,-0.007053769999999999,1746802082282534
0.380926,0.26611,-10.395034,-0.023956199999999997,-0.005456689999999999,-0.0073199499999999995,1746802102258014
0.38152400000000003,0.282854,-10.378888,-0.02448856,-0.00572287,-0.00718686,1746802122233374
0.377338,0.272688,-10.399818,-0.02462165,-0.00505742,-0.007453039999999999,1746802142208594
0.37973,0.267306,-10.378888,-0.02408929,-0.00572287,-0.00718686,1746802162183854
0.360594,0.263718,-10.369918,-0.024222379999999998,-0.0047912399999999996,-0.007453039999999999,1746802182159294
0.372554,0.2691,-10.389054,-0.02542019,-0.0053235999999999995,-0.00825158,1746802202134554
0.35581,0.279864,-10.395034,-0.02502092,-0.005589779999999999,-0.006388319999999999,1746802222109914
0.364182,0.26013000000000003,-10.383672,-0.024222379999999998,-0.00572287,-0.007053769999999999,1746802242085074
0.377936,0.278668,-10.397426,-0.02408929,-0.00625523,-0.0073199499999999995,1746802262060274
0.383916,0.277472,-10.401014,-0.023823109999999998,-0.0053235999999999995,-0.0079854,1746802282035574
0.382122,0.283452,-10.402808,-0.024355469999999997,-0.00505742,-0.0079854,1746802302010974
0.384514,0.26611,-10.39922,-0.023423839999999998,-0.005456689999999999,-0.00825158,1746802321986294
0.36777,0.261924,-10.400416,-0.02408929,-0.004924329999999999,-0.00785231,1746802341961654
0.370162,0.264316,-10.375898,-0.024355469999999997,-0.004924329999999999,-0.008384669999999999,1746802361937114
0.38152400000000003,0.268502,-10.393838,-0.024222379999999998,-0.0038596099999999994,-0.007453039999999999,1746802381912554
0.373152,0.258934,-10.381878,-0.02408929,-0.004924329999999999,-0.0073199499999999995,1746802401888054
0.366574,0.266708,-10.396230000000001,-0.023556929999999997,-0.005456689999999999,-0.0079854,1746802421863454
0.38152400000000003,0.261326,-10.396230000000001,-0.024222379999999998,-0.005456689999999999,-0.006920679999999999,1746802441838814
0.371358,0.268502,-10.359752,-0.02329075,-0.00519051,-0.00625523,1746802461814314
0.38272,0.274482,-10.395632,-0.02329075,-0.0058559599999999995,-0.00785231,1746802481789474
0.37076,0.258934,-10.374702000000001,-0.024754739999999997,-0.005989049999999999,-0.00678759,1746802501764894
0.370162,0.269698,-10.392642,-0.024222379999999998,-0.0039927,-0.007453039999999999,1746802521740194
0.380328,0.264914,-10.389054,-0.02408929,-0.004391969999999999,-0.007719219999999999,1746802541715654
0.374946,0.29601,-10.390848,-0.02369002,-0.0047912399999999996,-0.007719219999999999,1746802561690994
0.364182,0.2691,-10.366928,-0.02369002,-0.004525059999999999,-0.00785231,1746802581666334
0.363584,0.280462,-10.395632,-0.023423839999999998,-0.004924329999999999,-0.007453039999999999,1746802601641754
0.365378,0.262522,-10.3753,-0.02369002,-0.00519051,-0.00718686,1746802621617114
0.374348,0.25714,-10.370516,-0.02502092,-0.0053235999999999995,-0.0073199499999999995,1746802641592514
0.368966,0.249366,-10.392642,-0.02462165,-0.00412579,-0.007453039999999999,1746802661567754
0.374348,0.276874,-10.386662,-0.02408929,-0.0053235999999999995,-0.007586129999999999,1746802681543114
0.37375,0.275678,-10.39922,-0.023956199999999997,-0.00625523,-0.0079854,1746802701518494
0.372554,0.255944,-10.386064,-0.024355469999999997,-0.00612214,-0.008118489999999999,1746802721493854
0.372554,0.259532,-10.37829,-0.02408929,-0.005589779999999999,-0.00785231,1746802741469114
0.37076,0.264914,-10.38128,-0.02408929,-0.005456689999999999,-0.00678759,1746802761444374
0.386906,0.258934,-10.382476,-0.02329075,-0.00465815,-0.00678759,1746802781419714
0.370162,0.264914,-10.38726,-0.02408929,-0.00465815,-0.00785231,1746802801395094
0.374348,0.26013000000000003,-10.377692,-0.024222379999999998,-0.00412579,-0.008783939999999999,1746802821370414
0.37614200000000003,0.276874,-10.377692,-0.02462165,-0.004525059999999999,-0.00718686,1746802841345794
0.378534,0.2691,-10.386662,-0.02462165,-0.0047912399999999996,-0.007586129999999999,1746802861321174
0.38272,0.25714,-10.361546,-0.02369002,-0.004924329999999999,-0.00785231,1746802881296494
0.341458,0.268502,-10.378888,-0.023823109999999998,-0.005589779999999999,-0.007453039999999999,1746802901271854
0.385112,0.259532,-10.381878,-0.023823109999999998,-0.00519051,-0.008384669999999999,1746802921247234
0.389298,0.268502,-10.389054,-0.023556929999999997,-0.00519051,-0.007719219999999999,1746801942222434
0.37076,0.265512,-10.391446,-0.02448856,-0.005589779999999999,-0.006388319999999999,1746801962197754
0.375544,0.279864,-10.38427,-0.024222379999999998,-0.0038596099999999994,-0.007453039999999999,1746801982173094
0.368966,0.264316,-10.391446,-0.02408929,-0.004924329999999999,-0.007453039999999999,1746802002148254
0.384514,0.264316,-10.355566,-0.02289148,-0.005589779999999999,-0.00718686,1746802022123514
0.380926,0.27328600000000003,-10.411778,-0.024355469999999997,-0.004525059999999999,-0.0073199499999999995,1746802042098674
0.371358,0.257738,-10.393838,-0.024355469999999997,-0.005589779999999999,-0.007719219999999999,1746802062073934
0.367172,0.26790400000000003,-10.38128,-0.024355469999999997,-0.004924329999999999,-0.00785231,1746802082049314
0.371956,0.258934,-10.370516,-0.023823109999999998,-0.00505742,-0.007453039999999999,1746802102024514
0.368966,0.258934,-10.367526,-0.023423839999999998,-0.0047912399999999996,-0.00625523,1746802121999894
0.37614200000000003,0.270894,-10.392642,-0.02329075,-0.0047912399999999996,-0.006521409999999999,1746802141975374
0.379132,0.26312,-10.3753,-0.02329075,-0.004391969999999999,-0.008118489999999999,1746802161950814
0.37614200000000003,0.263718,-10.375898,-0.02369002,-0.004391969999999999,-0.008118489999999999,1746802181926354
0.365378,0.260728,-10.39922,-0.02408929,-0.004391969999999999,-0.00718686,1746802201901834
0.367172,0.267306,-10.396230000000001,-0.02369002,-0.004391969999999999,-0.00678759,1746802221877194
0.359398,0.28106,-10.380084,-0.02408929,-0.004525059999999999,-0.00785231,1746802241852614
0.391092,0.26611,-10.379486,-0.024222379999999998,-0.00519051,-0.007586129999999999,1746802261828034
0.369564,0.2691,-10.377094,-0.024754739999999997,-0.00572287,-0.00625523,1746802281803554
0.371358,0.265512,-10.371114,-0.02369002,-0.004924329999999999,-0.007453039999999999,1746802301779034
0.369564,0.265512,-10.37231,-0.023823109999999998,-0.0047912399999999996,-0.007053769999999999,1746802321754454
0.366574,0.255346,-10.359752,-0.02408929,-0.00505742,-0.00785231,1746802341729954
0.38272,0.273884,-10.404004,-0.024222379999999998,-0.00412579,-0.0073199499999999995,1746802361705374
0.374946,0.274482,-10.396828,-0.023956199999999997,-0.004924329999999999,-0.00785231,1746802381681254
0.36478,0.2691,-10.385466000000001,-0.02448856,-0.0053235999999999995,-0.007719219999999999,1746802401656694
0.37076,0.26790400000000003,-10.39324,-0.024355469999999997,-0.0047912399999999996,-0.00678759,1746802421632194
0.370162,0.24817,-10.377094,-0.023956199999999997,-0.004525059999999999,-0.00718686,1746802441607714
0.379132,0.266708,-10.37829,-0.023956199999999997,-0.004391969999999999,-0.007053769999999999,1746802461583234
0.369564,0.25714,-10.374104,-0.024887829999999996,-0.005456689999999999,-0.007586129999999999,1746802481558514
0.373152,0.260728,-10.386064,-0.023956199999999997,-0.0047912399999999996,-0.008118489999999999,1746802501533894
0.36777,0.26013000000000003,-10.41118,-0.02462165,-0.00505742,-0.007453039999999999,1746802521509534
0.38272,0.27328600000000003,-10.375898,-0.02502092,-0.00425888,-0.0079854,1746802541485074
0.362388,0.25116,-10.387858,-0.02462165,-0.0038596099999999994,-0.007053769999999999,1746802561460434
0.37973,0.261924,-10.353772,-0.024222379999999998,-0.0053235999999999995,-0.007719219999999999,1746802581435874
0.36777,0.264316,-10.392044,-0.023823109999999998,-0.00519051,-0.00678759,1746802601411214
0.37076,0.2691,-10.390848,-0.02369002,-0.0047912399999999996,-0.0073199499999999995,1746802621386494
0.370162,0.269698,-10.38427,-0.02408929,-0.00519051,-0.0058559599999999995,1746802641361894
0.386906,0.26312,-10.384868,-0.02462165,-0.00519051,-0.006920679999999999,1746802661337354
0.37973,0.261924,-10.384868,-0.024222379999999998,-0.0053235999999999995,-0.007453039999999999,1746802681312714
0.386308,0.265512,-10.379486,-0.024754739999999997,-0.004525059999999999,-0.00785231,1746802701288154
0.380328,0.268502,-10.392642,-0.024754739999999997,-0.00519051,-0.007453039999999999,1746802721263634
0.367172,0.276276,-10.397426,-0.02448856,-0.005456689999999999,-0.007453039999999999,1746802741238994
0.375544,0.265512,-10.374104,-0.02369002,-0.0058559599999999995,-0.0079854,1746802761214314
0.372554,0.257738,-10.370516,-0.02502092,-0.004924329999999999,-0.007453039999999999,1746802781189514
0.389896,0.259532,-10.375898,-0.02502092,-0.00465815,-0.007586129999999999,1746802801164854
0.38152400000000003,0.271492,-10.377692,-0.02448856,-0.00425888,-0.007586129999999999,1746802821140054
0.374348,0.27328600000000003,-10.385466000000001,-0.02369002,-0.004391969999999999,-0.0079854,1746802841115274
0.36777,0.26611,-10.358556,-0.02408929,-0.0047912399999999996,-0.007719219999999999,1746802861090594
0.371358,0.265512,-10.343606,-0.02448856,-0.0047912399999999996,-0.007453039999999999,1746802881065814
0.378534,0.273884,-10.380084,-0.023956199999999997,-0.00412579,-0.00825158,1746802901041094
0.37674,0.26611,-10.386662,-0.02369002,-0.0058559599999999995,-0.007719219999999999,1746802921016254
0.383318,0.269698,-10.386064,-0.02369002,-0.004924329999999999,-0.007453039999999999,1746802940991554
0.36179,0.261326,-10.383672,-0.02408929,-0.004525059999999999,-0.00825158,1746801961966814
0.3887,0.262522,-10.41716,-0.023556929999999997,-0.004391969999999999,-0.0073199499999999995,1746801981942234
0.369564,0.262522,-10.389054,-0.023423839999999998,-0.00505742,-0.0079854,1746802001917694
0.36298600000000003,0.260728,-10.381878,-0.023956199999999997,-0.00612214,-0.00718686,1746802021892574
0.372554,0.25415,-10.390848,-0.024222379999999998,-0.00505742,-0.00825158,1746802041868054
0.375544,0.279266,-10.374104,-0.024887829999999996,-0.0047912399999999996,-0.0073199499999999995,1746802061843434
0.369564,0.274482,-10.384868,-0.02448856,-0.0047912399999999996,-0.007453039999999999,1746802081818634
0.383318,0.25714,-10.389652,-0.02448856,-0.00519051,-0.007053769999999999,1746802101793934
0.365976,0.268502,-10.392044,-0.023956199999999997,-0.00572287,-0.00718686,1746802121769454
0.365378,0.27328600000000003,-10.400416,-0.02448856,-0.006388319999999999,-0.00612214,1746802141744854
0.367172,0.267306,-10.380084,-0.02448856,-0.0053235999999999995,-0.00851776,1746802161720114
0.36777,0.262522,-10.379486,-0.023823109999999998,-0.0047912399999999996,-0.00891703,1746802181695374
0.37076,0.276276,-10.380084,-0.024355469999999997,-0.0053235999999999995,-0.0079854,1746802201670854
0.364182,0.261326,-10.359154,-0.024355469999999997,-0.004525059999999999,-0.007719219999999999,1746802221646254
0.371956,0.265512,-10.388456,-0.024754739999999997,-0.004525059999999999,-0.007586129999999999,1746802241621674
0.377936,0.261326,-10.372908,-0.02369002,-0.004391969999999999,-0.007053769999999999,1746802261597074
0.356408,0.270296,-10.398622,-0.024222379999999998,-0.004924329999999999,-0.007586129999999999,1746802281572414
0.369564,0.255346,-10.411778,-0.024887829999999996,-0.00465815,-0.007586129999999999,1746802301547694
0.375544,0.258336,-10.404004,-0.025952549999999998,-0.00425888,-0.00718686,1746802321523074
0.371956,0.261924,-10.404004,-0.023823109999999998,-0.005456689999999999,-0.008783939999999999,1746802341498334
0.366574,0.268502,-10.398622,-0.023024569999999998,-0.00572287,-0.00891703,1746802361473554
0.360594,0.250562,-10.386662,-0.023556929999999997,-0.00505742,-0.0073199499999999995,1746802381448874
0.36777,0.267306,-10.383074,-0.023556929999999997,-0.004924329999999999,-0.0073199499999999995,1746802401424334
0.3887,0.26611,-10.381878,-0.02502092,-0.006920679999999999,-0.00785231,1746802421399754
0.369564,0.2691,-10.370516,-0.02408929,-0.00612214,-0.007586129999999999,1746802441375094
0.374348,0.26013000000000003,-10.398622,-0.02408929,-0.0047912399999999996,-0.0079854,1746802461350414
0.367172,0.259532,-10.390848,-0.023157659999999997,-0.00465815,-0.00678759,1746802481325714
0.37614200000000003,0.26611,-10.408788,-0.023956199999999997,-0.00505742,-0.007053769999999999,1746802501301054
0.37614200000000003,0.268502,-10.389652,-0.02408929,-0.004391969999999999,-0.006388319999999999,1746802521276394
0.383916,0.277472,-10.3753,-0.024754739999999997,-0.00465815,-0.007586129999999999,1746802541251814
0.37614200000000003,0.276276,-10.381878,-0.024222379999999998,-0.005456689999999999,-0.007586129999999999,1746802561227154
0.37076,0.27807,-10.368124,-0.02462165,-0.00505742,-0.006920679999999999,1746802581202514
0.385112,0.26611,-10.372908,-0.02448856,-0.00505742,-0.0079854,1746802601177814
0.36777,0.27807,-10.391446,-0.02408929,-0.0047912399999999996,-0.007453039999999999,1746802621152874
0.37674,0.276276,-10.38427,-0.024222379999999998,-0.00425888,-0.00718686,1746802641128034
0.358202,0.275678,-10.36633,-0.023556929999999997,-0.0047912399999999996,-0.00678759,1746802661103294
0.375544,0.260728,-10.389054,-0.023823109999999998,-0.00625523,-0.0073199499999999995,1746802681078394
0.374946,0.270296,-10.39324,-0.023823109999999998,-0.006388319999999999,-0.007453039999999999,1746802701053474
0.37375,0.249366,-10.395034,-0.02369002,-0.005589779999999999,-0.00865085,1746802721028794
0.369564,0.270894,-10.363938000000001,-0.02448856,-0.005456689999999999,-0.00785231,1746802741003894
0.374946,0.26611,-10.404602,-0.02502092,-0.004525059999999999,-0.007586129999999999,1746802760979074
0.379132,0.258934,-10.366928,-0.024355469999999997,-0.005456689999999999,-0.00865085,1746802780954334
0.368966,0.26790400000000003,-10.380084,-0.02502092,-0.00505742,-0.008118489999999999,1746802800929574
0.369564,0.258336,-10.376496,-0.023823109999999998,-0.00465815,-0.00678759,1746802820904754
0.375544,0.252356,-10.385466000000001,-0.023956199999999997,-0.0047912399999999996,-0.0073199499999999995,1746802840879874
0.361192,0.256542,-10.38128,-0.024222379999999998,-0.004391969999999999,-0.007719219999999999,1746802860855014
0.358202,0.263718,-10.408788,-0.023556929999999997,-0.00519051,-0.008783939999999999,1746802880830374
0.383916,0.26312,-10.382476,-0.02448856,-0.00505742,-0.008384669999999999,1746802900805674
0.374946,0.26312,-10.380084,-0.02408929,-0.0047912399999999996,-0.00718686,1746802920781054
0.368966,0.263718,-10.384868,-0.023823109999999998,-0.004525059999999999,-0.007586129999999999,1746802940756334
0.360594,0.26790400000000003,-10.377692,-0.02329075,-0.00412579,-0.00718686,1746801961731574
0.374946,0.262522,-10.374104,-0.02408929,-0.00572287,-0.00678759,1746801981706854
0.37076,0.2691,-10.374702000000001,-0.024355469999999997,-0.00519051,-0.007453039999999999,1746802001682234
0.374348,0.255944,-10.355566,-0.023956199999999997,-0.0038596099999999994,-0.00825158,1746802021657554
0.380926,0.26312,-10.380682,-0.02462165,-0.00425888,-0.007719219999999999,1746802041632854
0.366574,0.274482,-10.367526,-0.024887829999999996,-0.00412579,-0.00718686,1746802061608154
0.373152,0.25116,-10.380682,-0.023823109999999998,-0.005456689999999999,-0.00825158,1746802081583414
0.373152,0.260728,-10.387858,-0.023556929999999997,-0.00572287,-0.00718686,1746802101558614
0.387504,0.248768,-10.398622,-0.02369002,-0.005456689999999999,-0.007719219999999999,1746802121533874
0.359996,0.269698,-10.382476,-0.02448856,-0.00505742,-0.00718686,1746802141509194
0.371956,0.267306,-10.383074,-0.024222379999999998,-0.004391969999999999,-0.0073199499999999995,1746802161484514
0.372554,0.27508,-10.393838,-0.02462165,-0.00425888,-0.00865085,1746802181459774
0.35581,0.266708,-10.389054,-0.024355469999999997,-0.004924329999999999,-0.007586129999999999,1746802201435134
0.383318,0.261924,-10.36633,-0.02408929,-0.004391969999999999,-0.00865085,1746802221410374
0.37674,0.268502,-10.367526,-0.02502092,-0.00465815,-0.008118489999999999,1746802241385774
0.354016,0.279266,-10.404602,-0.024887829999999996,-0.00519051,-0.00785231,1746802261361154
0.37076,0.27328600000000003,-10.396230000000001,-0.024887829999999996,-0.005456689999999999,-0.007053769999999999,1746802281336514
0.38152400000000003,0.269698,-10.395034,-0.02502092,-0.0053235999999999995,-0.006920679999999999,1746802301311754
0.366574,0.264914,-10.367526,-0.024355469999999997,-0.00505742,-0.00718686,1746802321287094
0.367172,0.27209,-10.374702000000001,-0.023556929999999997,-0.00505742,-0.007053769999999999,1746802341262474
0.372554,0.266708,-10.386064,-0.023823109999999998,-0.005456689999999999,-0.00718686,1746802361237754
0.383318,0.255346,-10.38726,-0.02369002,-0.00505742,-0.008118489999999999,1746802381213094
0.363584,0.26611,-10.377692,-0.02448856,-0.0047912399999999996,-0.007053769999999999,1746802401188534
0.357604,0.282256,-10.376496,-0.02369002,-0.0053235999999999995,-0.00678759,1746802421163794
0.370162,0.261326,-10.37829,-0.02408929,-0.00519051,-0.006920679999999999,1746802441139154
0.352222,0.26611,-10.389652,-0.02369002,-0.00505742,-0.007053769999999999,1746802461114514
0.374348,0.257738,-10.380682,-0.02408929,-0.0053235999999999995,-0.008384669999999999,1746802481089854
0.366574,0.26312,-10.383074,-0.02448856,-0.00505742,-0.007453039999999999,1746802501065314
0.3588,0.262522,-10.404602,-0.02448856,-0.00505742,-0.00785231,1746802521040594
0.359996,0.276276,-10.388456,-0.024222379999999998,-0.0037265199999999997,-0.00785231,1746802541015954
0.357604,0.271492,-10.392642,-0.02448856,-0.004924329999999999,-0.00785231,1746802560991694
0.38152400000000003,0.26312,-10.38726,-0.02408929,-0.005589779999999999,-0.008384669999999999,1746802580967074
0.380328,0.261326,-10.38726,-0.023956199999999997,-0.004525059999999999,-0.007453039999999999,1746802600942474
0.377338,0.26790400000000003,-10.401612,-0.023956199999999997,-0.00465815,-0.007719219999999999,1746802620917894
0.350428,0.252954,-10.392044,-0.024754739999999997,-0.00505742,-0.006654499999999999,1746802640893274
0.374946,0.264914,-10.404004,-0.02448856,-0.0053235999999999995,-0.006654499999999999,1746802660868734
0.370162,0.260728,-10.37231,-0.02448856,-0.00519051,-0.0073199499999999995,1746802680844094
0.379132,0.261924,-10.39922,-0.023556929999999997,-0.00505742,-0.007586129999999999,1746802700819394
0.358202,0.246376,-10.392642,-0.02329075,-0.004525059999999999,-0.007586129999999999,1746802720794754
0.36478,0.265512,-10.38128,-0.023823109999999998,-0.00625523,-0.00718686,1746802740770174
0.37375,0.27328600000000003,-10.398622,-0.02448856,-0.005589779999999999,-0.008384669999999999,1746802760745594
0.386906,0.268502,-10.38128,-0.023956199999999997,-0.00612214,-0.007053769999999999,1746802780721014
0.36478,0.267306,-10.381878,-0.023956199999999997,-0.005989049999999999,-0.00718686,1746802800696394
0.368966,0.262522,-10.402808,-0.02408929,-0.005456689999999999,-0.007453039999999999,1746802820671794
0.367172,0.275678,-10.383672,-0.023956199999999997,-0.004924329999999999,-0.007719219999999999,1746802840647074
0.369564,0.261924,-10.37829,-0.023556929999999997,-0.005589779999999999,-0.00785231,1746802860622594
0.36179,0.261924,-10.38128,-0.02502092,-0.004924329999999999,-0.007719219999999999,1746802880597954
0.36836800000000003,0.25474800000000003,-10.394436,-0.023956199999999997,-0.00505742,-0.0079854,1746802900573334
0.377936,0.258934,-10.3753,-0.02448856,-0.00425888,-0.006920679999999999,1746802920548654
0.379132,0.26312,-10.38427,-0.024222379999999998,-0.00505742,-0.00785231,1746802940524154
0.368966,0.26790400000000003,-10.405798,-0.02448856,-0.00425888,-0.006920679999999999,1746801961499574
0.362388,0.263718,-10.354968,-0.02408929,-0.00519051,-0.006654499999999999,1746801981474914
0.378534,0.264914,-10.374702000000001,-0.023823109999999998,-0.004525059999999999,-0.0058559599999999995,1746802001450474
0.369564,0.262522,-10.402808,-0.023823109999999998,-0.0033272499999999995,-0.00785231,1746802021425934
0.36179,0.255346,-10.372908,-0.02462165,-0.004924329999999999,-0.007053769999999999,1746802041401194
0.38152400000000003,0.265512,-10.391446,-0.024222379999999998,-0.00519051,-0.007586129999999999,1746802061376614
0.374946,0.248768,-10.398622,-0.023157659999999997,-0.0039927,-0.00785231,1746802081351894
0.357604,0.255346,-10.383074,-0.022359119999999996,-0.004525059999999999,-0.007719219999999999,1746802101327314
0.374946,0.277472,-10.386064,-0.02408929,-0.00519051,-0.007453039999999999,1746802121302794
0.360594,0.27328600000000003,-10.372908,-0.024355469999999997,-0.00519051,-0.007586129999999999,1746802141278114
0.365378,0.273884,-10.3753,-0.024754739999999997,-0.004525059999999999,-0.00851776,1746802161253454
0.367172,0.257738,-10.380682,-0.024887829999999996,-0.00425888,-0.00718686,1746802181228974
0.360594,0.273884,-10.38427,-0.023556929999999997,-0.004525059999999999,-0.00825158,1746802201203914
0.374348,0.2691,-10.375898,-0.023956199999999997,-0.004525059999999999,-0.007719219999999999,1746802221179334
0.36179,0.27328600000000003,-10.37231,-0.02369002,-0.00465815,-0.00865085,1746802241154754
0.372554,0.259532,-10.367526,-0.025154009999999997,-0.00465815,-0.0073199499999999995,1746802261130114
0.372554,0.268502,-10.401014,-0.025686369999999997,-0.00425888,-0.008384669999999999,1746802281105434
0.374946,0.272688,-10.391446,-0.025154009999999997,-0.004525059999999999,-0.0079854,1746802301080714
0.367172,0.281658,-10.401612,-0.02408929,-0.004525059999999999,-0.00825158,1746802321056034
0.380328,0.268502,-10.381878,-0.023956199999999997,-0.004391969999999999,-0.0073199499999999995,1746802341031494
0.371956,0.285844,-10.382476,-0.02408929,-0.00572287,-0.007053769999999999,1746802361006914
0.364182,0.267306,-10.399818,-0.02462165,-0.00519051,-0.006920679999999999,1746802380982294
0.360594,0.276874,-10.396828,-0.02502092,-0.00519051,-0.006388319999999999,1746802400957654
0.36179,0.26790400000000003,-10.3753,-0.02408929,-0.005456689999999999,-0.006654499999999999,1746802420932894
0.385112,0.263718,-10.37829,-0.023024569999999998,-0.004924329999999999,-0.007586129999999999,1746802440908234
0.386906,0.25474800000000003,-10.383074,-0.023556929999999997,-0.0053235999999999995,-0.007719219999999999,1746802460883574
0.372554,0.278668,-10.38128,-0.02369002,-0.0053235999999999995,-0.007586129999999999,1746802480858914
0.37674,0.275678,-10.380682,-0.024355469999999997,-0.005589779999999999,-0.007586129999999999,1746802500834154
0.354614,0.282854,-10.368124,-0.023823109999999998,-0.0047912399999999996,-0.006654499999999999,1746802520809434
0.372554,0.279266,-10.374702000000001,-0.02329075,-0.0039927,-0.006521409999999999,1746802540784714
0.379132,0.27508,-10.387858,-0.024887829999999996,-0.004391969999999999,-0.006920679999999999,1746802560760054
0.36478,0.255944,-10.399818,-0.02462165,-0.00519051,-0.007586129999999999,1746802580735294
0.371358,0.251758,-10.395632,-0.023956199999999997,-0.00572287,-0.008118489999999999,1746802600710574
0.369564,0.276276,-10.369918,-0.024222379999999998,-0.005589779999999999,-0.007719219999999999,1746802620685934
0.37614200000000003,0.270296,-10.383672,-0.02408929,-0.004391969999999999,-0.0073199499999999995,1746802640661174
0.371358,0.252356,-10.390848,-0.024222379999999998,-0.00465815,-0.0079854,1746802660636434
0.351624,0.261326,-10.396230000000001,-0.024754739999999997,-0.004924329999999999,-0.00785231,1746802680611714
0.375544,0.26611,-10.384868,-0.024887829999999996,-0.0047912399999999996,-0.007453039999999999,1746802700586994
0.359996,0.271492,-10.396230000000001,-0.024222379999999998,-0.004525059999999999,-0.00718686,1746802720562334
0.366574,0.269698,-10.391446,-0.023956199999999997,-0.00465815,-0.007053769999999999,1746802740537614
0.368966,0.277472,-10.393838,-0.02369002,-0.004924329999999999,-0.00825158,1746802760512854
0.36777,0.274482,-10.385466000000001,-0.024355469999999997,-0.005989049999999999,-0.0079854,1746802780488154
0.358202,0.268502,-10.379486,-0.023956199999999997,-0.00505742,-0.00718686,1746802800463454
0.36298600000000003,0.26312,-10.388456,-0.023823109999999998,-0.00425888,-0.00718686,1746802820438734
0.374946,0.261326,-10.385466000000001,-0.023157659999999997,-0.00465815,-0.007453039999999999,1746802840414114
0.37614200000000003,0.2691,-10.375898,-0.023956199999999997,-0.00505742,-0.007453039999999999,1746802860389414
0.388102,0.268502,-10.404602,-0.02448856,-0.004391969999999999,-0.006521409999999999,1746802880364694
0.383318,0.26312,-10.390848,-0.024355469999999997,-0.005456689999999999,-0.007053769999999999,1746802900339974
0.374348,0.266708,-10.36633,-0.02502092,-0.00572287,-0.006920679999999999,1746802920315354
0.37076,0.267306,-10.386064,-0.02502092,-0.0058559599999999995,-0.007053769999999999,1746802940290714
0.371956,0.267306,-10.383074,-0.023823109999999998,-0.0053235999999999995,-0.0079854,1746801961266034
0.380328,0.2691,-10.388456,-0.023956199999999997,-0.005456689999999999,-0.00825158,1746801981241274
0.374946,0.25415,-10.383074,-0.023423839999999998,-0.00519051,-0.008118489999999999,1746802001216634
0.368966,0.26790400000000003,-10.400416,-0.023157659999999997,-0.00425888,-0.00785231,1746802021191914
0.361192,0.270894,-10.39324,-0.024222379999999998,-0.004924329999999999,-0.0073199499999999995,1746802041167194
0.374348,0.27328600000000003,-10.377094,-0.024222379999999998,-0.004924329999999999,-0.006920679999999999,1746802061142554
0.363584,0.26312,-10.374104,-0.02448856,-0.005456689999999999,-0.006920679999999999,1746802081117954
0.367172,0.270894,-10.396828,-0.025287099999999996,-0.00519051,-0.007586129999999999,1746802101093354
0.374348,0.279266,-10.386064,-0.024355469999999997,-0.0038596099999999994,-0.00785231,1746802121068734
0.3588,0.276874,-10.388456,-0.02502092,-0.0039927,-0.0079854,1746802141044074
0.380328,0.267306,-10.394436,-0.025287099999999996,-0.00505742,-0.00825158,1746802161019454
0.364182,0.276874,-10.383672,-0.025154009999999997,-0.004924329999999999,-0.007586129999999999,1746802180994874
0.382122,0.262522,-10.377094,-0.02408929,-0.00465815,-0.0079854,1746802200970254
0.368966,0.258336,-10.404602,-0.02448856,-0.00519051,-0.006654499999999999,1746802220945654
0.366574,0.264316,-10.369918,-0.023823109999999998,-0.00505742,-0.006920679999999999,1746802240921014
0.37076,0.263718,-10.38128,-0.02408929,-0.0053235999999999995,-0.006521409999999999,1746802260896354
0.368966,0.271492,-10.39324,-0.02448856,-0.004924329999999999,-0.007453039999999999,1746802280871714
0.37674,0.255346,-10.383074,-0.02448856,-0.004391969999999999,-0.008783939999999999,1746802300847074
0.363584,0.26611,-10.375898,-0.02462165,-0.004525059999999999,-0.00718686,1746802320822494
0.365976,0.277472,-10.366928,-0.024355469999999997,-0.0058559599999999995,-0.006920679999999999,1746802340797774
0.359996,0.274482,-10.38726,-0.02621873,-0.005456689999999999,-0.007586129999999999,1746802360773134
